timestamp,ax,ay,az
1479424214781087125,0.17,0.76,9.91
1479424214790937655,0.23,0.75,9.61
1479424214801219055,0.21,0.74,9.71
1479424214811681776,0.11,0.72,10.01
1479424214821136076,0.01,0.7,10.2
1479424214831387764,0.01,0.7,9.91
1479424214841173477,0.08,0.7,10.3
1479424214851105945,0.14,0.69,10.4
1479424214861217099,0.18,0.69,10.4
1479424214871181354,0.23,0.69,10.3
1479424214881215796,0.25,0.69,9.71
1479424214891212737,0.21,0.67,9.91
1479424214901418013,0.17,0.67,10.01
1479424214911965797,0.16,0.68,9.71
1479424214921272990,0.18,0.69,10.3
1479424214931281652,0.16,0.66,10.5
1479424214941340017,0.07,0.65,10.3
1479424214951423065,0.0,0.68,10.2
1479424214961522580,0.0,0.7,9.61
1479424214971398788,0.0,0.71,8.63
1479424214981609101,-0.03,0.7,8.83
1479424214991464454,-0.07,0.65,9.61
1479424215001636390,-0.11,0.63,9.91
1479424215012218906,-0.08,0.67,10.01
1479424215021622835,0.0,0.73,9.71
1479424215031610734,0.06,0.78,9.32
1479424215041627179,0.12,0.78,9.02
1479424215051623419,0.15,0.71,9.12
1479424215061636016,0.08,0.63,9.61
1479424215071647536,-0.09,0.59,9.52
1479424215081671621,-0.22,0.6,9.71
1479424215091660226,-0.17,0.66,9.42
1479424215101763465,-0.03,0.75,8.83
1479424215112511895,0.07,0.8,8.53
1479424215121798879,0.17,0.77,8.83
1479424215131832396,0.21,0.74,9.81
1479424215141872733,0.17,0.74,10.1
1479424215151868610,0.06,0.79,9.32
1479424215161830356,-0.02,0.85,9.32
1479424215171906935,-0.02,0.85,9.32
1479424215181951799,0.05,0.8,9.42
1479424215192245690,0.11,0.71,9.61
1479424215201956456,0.12,0.66,9.32
1479424215212725610,0.08,0.64,9.32
1479424215221988377,0.05,0.66,10.1
1479424215232035311,0.09,0.7,10.4
1479424215242046225,0.17,0.75,10.4
1479424215252090980,0.2,0.79,10.79
1479424215262223959,0.15,0.76,10.79
1479424215272161026,0.09,0.69,10.5
1479424215282158228,0.04,0.58,10.4
1479424215292171747,0.03,0.5,10.99
1479424215302205972,0.08,0.49,10.99
1479424215313001126,0.12,0.54,11.09
1479424215322288594,0.12,0.59,10.99
1479424215332375449,0.0,0.66,10.59
1479424215342293545,-0.24,0.75,10.4
1479424215352308665,-0.46,0.82,10.4
1479424215362353223,-0.47,0.8,9.81
1479424215372366505,-0.27,0.68,10.99
1479424215382390694,-0.09,0.57,11.48
1479424215392436562,0.0,0.52,11.58
1479424215403562439,0.05,0.55,11.18
1479424215413184424,0.07,0.6,11.38
1479424215422541103,0.15,0.61,10.59
1479424215432512868,0.25,0.61,10.01
1479424215442540929,0.28,0.61,10.5
1479424215452655355,0.15,0.55,10.4
1479424215462634933,-0.16,0.47,10.99
1479424215472646023,-0.4,0.48,10.01
1479424215483664253,-0.31,0.58,8.93
1479424215492643226,0.0,0.67,9.52
1479424215503447734,0.3,0.69,10.3
1479424215513464176,0.35,0.62,9.71
1479424215523623406,0.08,0.53,9.22
1479424215532798868,-0.17,0.48,9.12
1479424215544309308,-0.21,0.5,9.52
1479424215553217562,-0.09,0.55,9.61
1479424215563629831,0.06,0.62,9.61
1479424215572822715,0.19,0.72,8.83
1479424215583827134,0.19,0.8,8.93
1479424215592944303,0.11,0.82,8.83
1479424215603621034,0.07,0.77,8.24
1479424215613872881,0.04,0.7,8.83
1479424215623739314,-0.04,0.63,9.61
1479424215633165506,-0.17,0.56,10.1
1479424215644058188,-0.26,0.56,9.32
1479424215653124257,-0.24,0.62,8.93
1479424215663627273,-0.16,0.7,8.63
1479424215673161395,-0.1,0.71,8.83
1479424215683623617,-0.08,0.66,9.71
1479424215693655625,-0.09,0.61,9.61
1479424215703688201,-0.1,0.63,9.61
1479424215713935856,-0.06,0.69,9.12
1479424215723620908,0.0,0.75,9.02
1479424215733228005,0.04,0.78,9.02
1479424215744023790,0.05,0.73,9.81
1479424215753342199,-0.01,0.62,10.1
1479424215763862573,-0.14,0.54,10.2
1479424215773326114,-0.21,0.53,10.1
1479424215783636444,-0.1,0.59,9.42
1479424215793392052,0.1,0.68,9.22
1479424215803623237,0.24,0.73,9.52
1479424215814202191,0.26,0.72,9.22
1479424215823661144,0.19,0.7,9.61
1479424215833793190,0.08,0.66,10.01
1479424215844040973,-0.01,0.65,9.61
1479424215853490487,-0.06,0.64,9.91
1479424215863637576,-0.05,0.6,10.2
1479424215873650268,-0.01,0.54,9.61
1479424215883618421,0.01,0.52,9.52
1479424215893797124,0.02,0.54,9.81
1479424215904134932,0.03,0.55,9.61
1479424215914373568,0.06,0.52,9.81
1479424215923827403,0.1,0.52,10.01
1479424215933735266,0.13,0.56,9.81
1479424215944199406,0.13,0.62,10.01
1479424215954113805,0.1,0.64,9.81
1479424215964118817,0.03,0.61,10.01
1479424215973936855,-0.06,0.58,9.61
1479424215984074427,-0.11,0.54,9.42
1479424215993926772,0.0,0.53,9.52
1479424216004102091,0.23,0.54,9.32
1479424216014652809,0.41,0.6,8.53
1479424216024101115,0.37,0.66,8.53
1479424216034269625,0.17,0.67,9.71
1479424216044328892,0.03,0.64,10.79
1479424216054035835,0.03,0.62,10.59
1479424216064099775,0.05,0.64,10.5
1479424216074033249,0.07,0.64,10.1
1479424216084312722,0.08,0.6,9.81
1479424216094075348,0.12,0.57,9.02
1479424216104290451,0.2,0.58,8.63
1479424216115806672,0.3,0.58,9.32
1479424216124314418,0.36,0.57,9.91
1479424216134540903,0.4,0.61,9.61
1479424216144319454,0.47,0.71,9.02
1479424216154539090,0.49,0.8,9.71
1479424216164324426,0.34,0.78,10.01
1479424216175064382,0.14,0.7,9.91
1479424216184834961,0.04,0.6,9.32
1479424216195367721,0.03,0.52,9.71
1479424216204820519,0.06,0.48,9.32
1479424216215826760,0.13,0.47,8.93
1479424216227538893,0.24,0.51,9.02
1479424216235184210,0.33,0.6,9.42
1479424216244822062,0.33,0.69,9.52
1479424216255250622,0.3,0.73,9.61
1479424216264806883,0.26,0.71,9.61
1479424216274528322,0.18,0.67,9.81
1479424216284915863,0.1,0.64,10.2
1479424216295653229,0.04,0.62,9.81
1479424216305059329,0.07,0.61,9.52
1479424216316095367,0.2,0.65,9.81
1479424216325097213,0.39,0.74,9.52
1479424216335483985,0.56,0.83,9.61
1479424216345024816,0.61,0.88,10.1
1479424216355480803,0.5,0.86,10.2
1479424216365007134,0.33,0.79,10.3
1479424216375510708,0.17,0.69,10.79
1479424216385188464,0.12,0.61,10.59
1479424216395730292,0.14,0.57,10.5
1479424216405015323,0.21,0.58,11.09
1479424216416197891,0.33,0.6,10.99
1479424216425108187,0.49,0.64,10.89
1479424216435642519,0.64,0.69,10.99
1479424216445013755,0.72,0.72,10.69
1479424216455488487,0.69,0.71,10.4
1479424216465285902,0.58,0.69,10.1
1479424216475471461,0.44,0.65,10.01
1479424216485450436,0.31,0.61,10.5
1479424216495714037,0.21,0.57,10.79
1479424216505628018,0.19,0.57,10.99
1479424216516427228,0.23,0.59,11.18
1479424216525615172,0.25,0.61,11.38
1479424216535535937,0.26,0.6,11.48
1479424216545335145,0.26,0.58,11.28
1479424216555473597,0.25,0.58,11.18
1479424216565522634,0.22,0.57,10.89
1479424216575537746,0.18,0.56,10.59
1479424216585616567,0.1,0.61,10.2
1479424216595734645,0.07,0.69,9.71
1479424216605618166,0.18,0.8,8.83
1479424216616198456,0.37,0.88,8.63
1479424216625616427,0.49,0.9,8.73
1479424216635698140,0.46,0.82,9.12
1479424216645648779,0.33,0.71,9.32
1479424216655692523,0.18,0.6,9.61
1479424216665742488,0.06,0.48,9.42
1479424216675685623,0.01,0.43,9.22
1479424216685802516,0.02,0.46,9.42
1479424216695652806,-0.01,0.54,9.81
1479424216705743276,0.0,0.6,10.01
1479424216716462382,0.18,0.62,9.81
1479424216725976002,0.37,0.66,9.52
1479424216735842586,0.46,0.74,8.93
1479424216746119544,0.39,0.79,8.04
1479424216756021983,0.2,0.75,7.85
1479424216766235102,0.03,0.66,8.34
1479424216775799291,-0.03,0.62,9.12
1479424216786035090,0.0,0.67,9.32
1479424216795960579,0.06,0.79,9.52
1479424216806074073,0.15,0.91,9.12
1479424216816616650,0.15,0.95,8.53
1479424216826242485,0.04,0.9,8.63
1479424216836694226,-0.05,0.8,8.83
1479424216846018661,-0.02,0.69,9.81
1479424216856203759,0.11,0.63,9.61
1479424216866224679,0.28,0.66,9.02
1479424216876358346,0.31,0.73,8.83
1479424216886225459,0.18,0.79,9.22
1479424216896200086,0.1,0.78,10.2
1479424216906242612,0.14,0.74,10.3
1479424216916912770,0.2,0.73,9.71
1479424216926356159,0.21,0.72,9.02
1479424216936302979,0.16,0.72,8.24
1479424216946733640,0.1,0.7,9.12
1479424216956884042,0.08,0.67,10.4
1479424216966244054,0.1,0.7,10.79
1479424216976471770,0.19,0.75,10.1
1479424216986460110,0.32,0.78,9.71
1479424216996347811,0.38,0.75,10.4
1479424217006507234,0.38,0.65,11.09
1479424217017091197,0.37,0.58,10.99
1479424217026742758,0.33,0.52,10.5
1479424217036685424,0.32,0.48,10.1
1479424217046462308,0.34,0.47,9.61
1479424217056448716,0.3,0.55,9.81
1479424217066438847,0.22,0.7,10.59
1479424217076881437,0.22,0.82,10.4
1479424217086701661,0.28,0.81,11.09
1479424217096535393,0.21,0.71,11.09
1479424217106711370,0.05,0.62,10.1
1479424217117336058,-0.1,0.59,9.91
1479424217126694377,-0.19,0.53,10.89
1479424217136900908,-0.04,0.42,11.09
1479424217146737947,0.27,0.41,10.59
1479424217156890021,0.46,0.55,10.4
1479424217166715331,0.42,0.71,10.5
1479424217176732921,0.27,0.78,10.99
1479424217186971252,0.2,0.72,11.58
1479424217196883598,0.26,0.67,11.48
1479424217206858156,0.33,0.65,10.5
1479424217217662779,0.22,0.62,9.71
1479424217227280494,0.08,0.54,9.32
1479424217237282635,0.17,0.48,10.2
1479424217247105426,0.31,0.45,11.67
1479424217257139467,0.43,0.5,11.18
1479424217267460032,0.58,0.58,10.79
1479424217277033750,0.7,0.62,10.99
1479424217287011319,0.67,0.6,11.28
1479424217297013807,0.43,0.55,9.81
1479424217307062081,0.13,0.46,10.59
1479424217317833240,0.02,0.33,10.99
1479424217327094725,0.17,0.27,10.99
1479424217337402026,0.47,0.35,10.2
1479424217347174331,0.73,0.49,10.01
1479424217357335385,0.65,0.63,10.2
1479424217367213711,0.29,0.68,9.81
1479424217377513649,0.1,0.63,9.42
1479424217387220648,0.2,0.54,9.02
1479424217397408901,0.31,0.44,10.2
1479424217407404193,0.22,0.41,10.79
1479424217418038913,0.01,0.43,10.4
1479424217427358341,-0.01,0.51,9.81
1479424217437627550,0.14,0.62,9.12
1479424217447414289,0.3,0.7,8.63
1479424217457617199,0.36,0.66,8.83
1479424217467410722,0.27,0.52,9.71
1479424217477770127,0.11,0.37,9.81
1479424217487483262,0.0,0.31,9.02
1479424217497489838,0.04,0.41,8.14
1479424217507715596,0.12,0.53,8.53
1479424217518631433,0.12,0.57,9.22
1479424217527639808,0.14,0.52,9.52
1479424217537613902,0.16,0.48,8.83
1479424217547834755,0.13,0.47,9.61
1479424217557651817,0.14,0.43,10.89
1479424217567684846,0.05,0.39,9.61
1479424217577717265,-0.14,0.43,9.52
1479424217587715454,-0.15,0.5,9.42
1479424217597850427,0.02,0.55,9.42
1479424217607781875,0.24,0.58,9.42
1479424217618791860,0.4,0.61,9.22
1479424217627901145,0.47,0.62,9.02
1479424217637853243,0.41,0.6,8.93
1479424217647901490,0.22,0.55,9.61
1479424217657888347,0.07,0.47,8.83
1479424217667891785,0.03,0.46,9.42
1479424217677931146,0.08,0.49,9.32
1479424217687929400,0.12,0.52,9.22
1479424217698517603,0.16,0.54,9.81
1479424217707999326,0.22,0.51,9.81
1479424217719058603,0.32,0.47,9.42
1479424217728052198,0.48,0.44,8.83
1479424217738661598,0.6,0.41,8.83
1479424217748056749,0.58,0.37,9.81
1479424217758392880,0.36,0.34,9.91
1479424217768244441,0.07,0.36,9.81
1479424217778522147,0.0,0.46,9.71
1479424217788625012,0.08,0.58,9.61
1479424217798521437,0.14,0.67,8.73
1479424217808233300,0.15,0.75,7.65
1479424217819311615,0.26,0.73,8.73
1479424217828290485,0.46,0.6,10.5
1479424217838783521,0.56,0.49,9.81
1479424217848336141,0.4,0.46,9.52
1479424217858712345,0.23,0.49,9.52
1479424217868498840,0.15,0.52,10.1
1479424217878532479,0.06,0.52,10.5
1479424217888739559,-0.03,0.51,10.89
1479424217898495518,0.0,0.48,10.69
1479424217908632142,0.2,0.43,11.09
1479424217919286853,0.39,0.37,10.5
1479424217931132584,0.35,0.34,9.22
1479424217938905117,0.19,0.37,9.91
1479424217948628068,0.16,0.38,10.99
1479424217958974135,0.28,0.42,10.5
1479424217968619693,0.41,0.48,9.71
1479424217978810587,0.41,0.52,10.01
1479424217988742349,0.29,0.52,10.2
1479424217999236818,0.17,0.46,10.2
1479424218008739731,0.15,0.39,9.61
1479424218019686400,0.28,0.32,9.81
1479424218028788453,0.45,0.24,10.4
1479424218038798605,0.5,0.27,10.1
1479424218048822759,0.37,0.42,9.52
1479424218058868185,0.11,0.54,9.52
1479424218068863569,-0.1,0.56,9.81
1479424218079409696,-0.1,0.5,9.91
1479424218088932463,0.03,0.42,9.71
1479424218099256314,0.13,0.42,9.42
1479424218108966693,0.15,0.44,9.42
1479424218119742581,0.12,0.42,9.52
1479424218128992237,0.16,0.41,9.42
1479424218139265910,0.21,0.47,9.52
1479424218149120487,0.16,0.54,9.71
1479424218159107214,0.16,0.57,9.61
1479424218169095941,0.17,0.57,9.42
1479424218179364410,0.06,0.54,9.61
1479424218189160478,-0.01,0.5,9.71
1479424218199641744,0.03,0.46,9.61
1479424218209231320,0.11,0.38,9.61
1479424218220014982,0.18,0.36,9.52
1479424218229321479,0.17,0.42,9.52
1479424218239329508,0.15,0.5,9.81
1479424218249285446,0.18,0.55,10.2
1479424218259337638,0.22,0.51,10.3
1479424218269687923,0.26,0.49,9.91
1479424218279650301,0.29,0.47,9.52
1479424218289417349,0.23,0.44,9.42
1479424218299643877,0.14,0.39,9.81
1479424218309523090,0.09,0.34,10.69
1479424218320248283,0.11,0.35,10.69
1479424218329509021,0.21,0.45,10.2
1479424218339652771,0.35,0.55,9.61
1479424218349639230,0.45,0.59,9.52
1479424218359629473,0.51,0.54,10.2
1479424218369628295,0.54,0.43,10.4
1479424218379655616,0.47,0.35,10.3
1479424218389614312,0.41,0.33,10.5
1479424218399894100,0.45,0.37,10.2
1479424218409777196,0.48,0.46,9.52
1479424218420695753,0.46,0.55,9.71
1479424218429778979,0.46,0.57,9.91
1479424218439809574,0.5,0.55,9.81
1479424218449783633,0.52,0.52,9.61
1479424218459843309,0.53,0.49,9.71
1479424218469843881,0.55,0.5,9.71
1479424218479892774,0.51,0.5,9.71
1479424218489925239,0.4,0.5,9.71
1479424218499956099,0.3,0.5,9.52
1479424218509960971,0.25,0.53,9.42
1479424218520790139,0.27,0.56,9.61
1479424218529984211,0.35,0.59,9.52
1479424218540061482,0.38,0.61,9.71
1479424218550083389,0.4,0.62,9.42
1479424218560110725,0.46,0.6,9.32
1479424218570098699,0.48,0.58,9.32
1479424218580054544,0.39,0.57,9.61
1479424218590100542,0.28,0.6,9.52
1479424218600186395,0.21,0.63,9.91
1479424218610183323,0.16,0.62,9.71
1479424218620910130,0.12,0.62,9.32
1479424218630264080,0.11,0.66,9.12
1479424218640263056,0.15,0.7,9.52
1479424218650281318,0.2,0.7,9.71
1479424218660261104,0.21,0.66,9.32
1479424218670347901,0.18,0.65,9.42
1479424218680429093,0.14,0.68,9.32
1479424218690639680,0.14,0.7,9.52
1479424218700632597,0.13,0.69,9.22
1479424218710460215,0.08,0.65,9.22
1479424218721348822,0.02,0.61,9.12
1479424218730618665,0.02,0.6,9.52
1479424218740481512,0.09,0.59,9.71
1479424218750496265,0.18,0.58,9.71
1479424218760617578,0.21,0.59,9.22
1479424218771117055,0.13,0.63,8.93
1479424218780616607,0.0,0.64,9.02
1479424218790756122,-0.06,0.63,8.93
1479424218800768332,-0.13,0.62,9.02
1479424218810739602,-0.18,0.65,9.52
1479424218821414599,-0.1,0.69,9.71
1479424218831015234,0.06,0.7,9.52
1479424218841029782,0.13,0.71,9.32
1479424218850744961,0.08,0.72,8.73
1479424218860743724,0.02,0.75,8.83
1479424218870863882,0.04,0.75,9.61
1479424218880865218,0.13,0.72,9.61
1479424218890868666,0.2,0.69,9.22
1479424218900909869,0.16,0.69,8.83
1479424218911252066,0.1,0.71,8.73
1479424218921703489,0.07,0.71,9.12
1479424218930977609,0.04,0.67,10.1
1479424218940978615,-0.01,0.64,10.4
1479424218950967947,-0.02,0.66,10.4
1479424218961112128,0.0,0.68,10.4
1479424218971063288,0.0,0.67,10.2
1479424218981055587,0.0,0.66,9.71
1479424218991112542,0.07,0.64,9.42
1479424219001142368,0.19,0.62,10.4
1479424219011154956,0.27,0.6,10.3
1479424219021910512,0.3,0.62,10.1
1479424219031214810,0.31,0.68,9.42
1479424219041241400,0.31,0.75,9.71
1479424219051306226,0.31,0.76,10.5
1479424219061244100,0.3,0.7,10.5
1479424219071269625,0.24,0.64,10.59
1479424219081305104,0.18,0.61,10.69
1479424219091323244,0.16,0.58,10.79
1479424219101370956,0.17,0.55,10.69
1479424219111411715,0.21,0.54,10.01
1479424219122159486,0.32,0.54,9.61
1479424219131477821,0.47,0.56,9.52
1479424219141483933,0.59,0.6,9.81
1479424219151472662,0.62,0.64,9.81
1479424219161535843,0.57,0.67,9.71
1479424219171629080,0.49,0.66,10.2
1479424219181635938,0.39,0.6,10.79
1479424219191634379,0.33,0.54,10.4
1479424219201931148,0.29,0.51,9.81
1479424219211618354,0.23,0.52,9.91
1479424219222350416,0.19,0.53,10.2
1479424219231688436,0.23,0.56,10.2
1479424219241731969,0.3,0.6,10.3
1479424219251700382,0.35,0.67,9.81
1479424219261785010,0.41,0.74,9.52
1479424219272109274,0.43,0.74,9.91
1479424219281786497,0.32,0.69,10.3
1479424219291808038,0.17,0.63,10.2
1479424219301809347,-0.01,0.59,10.5
1479424219311903748,-0.19,0.58,10.5
1479424219322612657,-0.22,0.6,10.01
1479424219331982311,-0.04,0.63,10.2
1479424219342033775,0.19,0.69,9.81
1479424219352011480,0.35,0.72,9.61
1479424219361968481,0.41,0.69,10.5
1479424219372017504,0.37,0.62,10.69
1479424219382064620,0.25,0.57,10.4
1479424219392058550,0.16,0.56,10.3
1479424219402116126,0.11,0.58,10.3
1479424219412428099,0.05,0.58,10.4
1479424219423624256,0.03,0.54,10.1
1479424219432143206,0.14,0.52,9.81
1479424219442210980,0.28,0.52,10.01
1479424219452221580,0.36,0.52,10.3
1479424219462277035,0.43,0.52,10.2
1479424219472283996,0.57,0.53,10.5
1479424219482298992,0.69,0.57,10.59
1479424219492311010,0.56,0.62,10.5
1479424219502335457,0.22,0.64,10.69
1479424219512356733,-0.02,0.62,10.4
1479424219523825741,0.0,0.6,9.52
1479424219532402612,0.14,0.57,9.52
1479424219542415043,0.25,0.55,9.71
1479424219552480829,0.35,0.56,9.91
1479424219562493833,0.52,0.59,9.81
1479424219572491915,0.67,0.62,9.71
1479424219582515854,0.66,0.66,9.81
1479424219592628733,0.48,0.65,9.71
1479424219602612356,0.28,0.58,10.01
1479424219612628050,0.17,0.5,10.4
1479424219624070004,0.16,0.45,10.69
1479424219632625970,0.23,0.45,10.3
1479424219642657814,0.37,0.49,10.3
1479424219652702588,0.54,0.51,10.4
1479424219662688533,0.65,0.55,10.3
1479424219672761502,0.64,0.65,10.01
1479424219683615169,0.56,0.73,9.22
1479424219692769199,0.53,0.74,9.22
1479424219703661621,0.59,0.66,9.22
1479424219712864525,0.65,0.55,10.01
1479424219724353139,0.65,0.52,10.2
1479424219732882072,0.65,0.57,10.1
1479424219743959815,0.65,0.6,10.01
1479424219752947227,0.6,0.58,9.61
1479424219763663006,0.49,0.58,9.42
1479424219773426577,0.4,0.58,9.61
1479424219783656032,0.33,0.57,9.42
1479424219793446634,0.25,0.54,9.61
1479424219803703954,0.21,0.51,9.22
1479424219813459093,0.27,0.52,8.93
1479424219824425240,0.32,0.57,9.42
1479424219833194042,0.36,0.58,9.52
1479424219843933578,0.41,0.53,10.01
1479424219853208825,0.45,0.49,9.81
1479424219863683733,0.46,0.51,9.61
1479424219873264407,0.43,0.57,9.42
1479424219883656832,0.38,0.63,9.22
1479424219893286773,0.33,0.65,8.93
1479424219903722436,0.31,0.64,9.12
1479424219913658254,0.33,0.64,8.83
1479424219924404132,0.37,0.66,8.93
1479424219933398065,0.4,0.67,8.93
1479424219943923598,0.36,0.68,9.32
1479424219953779003,0.29,0.69,9.52
1479424219963913772,0.24,0.67,9.61
1479424219973494346,0.2,0.64,9.91
1479424219983650084,0.17,0.59,10.01
1479424219993509818,0.16,0.56,9.91
1479424220003649986,0.26,0.56,9.61
1479424220013807557,0.43,0.57,9.61
1479424220024410724,0.54,0.59,9.52
1479424220033801605,0.53,0.66,9.32
1479424220044186988,0.5,0.75,9.81
1479424220054290582,0.47,0.77,10.1
1479424220063696139,0.43,0.73,10.01
1479424220074337722,0.34,0.67,10.3
1479424220083929972,0.23,0.61,10.3
1479424220094307903,0.17,0.56,10.1
1479424220103934924,0.18,0.51,10.4
1479424220114288578,0.26,0.48,10.2
1479424220124640683,0.37,0.49,10.3
1479424220134305345,0.46,0.53,10.5
1479424220144258242,0.51,0.58,10.4
1479424220154369568,0.54,0.64,9.81
1479424220164161394,0.55,0.65,9.81
1479424220174346834,0.51,0.6,10.1
1479424220184164851,0.41,0.52,10.1
1479424220194303851,0.32,0.46,9.81
1479424220204407187,0.27,0.45,9.52
1479424220214334579,0.26,0.5,9.71
1479424220224909168,0.31,0.55,9.52
1479424220234332391,0.44,0.6,9.32
1479424220244865626,0.54,0.65,9.32
1479424220254369910,0.52,0.66,9.52
1479424220264179043,0.41,0.64,10.01
1479424220274394822,0.28,0.61,10.01
1479424220284450827,0.19,0.59,9.91
1479424220294425621,0.16,0.57,9.81
1479424220304430777,0.09,0.57,9.81
1479424220314834041,0.01,0.61,9.22
1479424220325368808,0.04,0.65,9.12
1479424220335361894,0.18,0.67,9.22
1479424220345160192,0.29,0.69,9.52
1479424220355142560,0.3,0.69,9.61
1479424220364863785,0.26,0.69,9.52
1479424220375153517,0.24,0.71,9.42
1479424220384867601,0.2,0.73,9.42
1479424220395541688,0.09,0.73,9.81
1479424220404868021,0.01,0.72,9.81
1479424220415306412,0.02,0.7,10.2
1479424220425619603,0.11,0.65,10.2
1479424220435674131,0.19,0.62,9.71
1479424220444974261,0.15,0.62,9.71
1479424220455317899,0.09,0.61,10.3
1479424220465107042,0.14,0.58,10.1
1479424220475321859,0.25,0.55,9.71
1479424220485072348,0.27,0.58,9.81
1479424220495622696,0.19,0.63,9.91
1479424220505133766,0.13,0.67,10.01
1479424220515339719,0.13,0.67,9.91
1479424220525876685,0.16,0.64,10.3
1479424220535358395,0.23,0.58,10.59
1479424220545072238,0.28,0.55,10.3
1479424220555644312,0.26,0.56,9.61
1479424220565106241,0.13,0.59,9.42
1479424220575631068,-0.01,0.61,9.91
1479424220585085413,-0.08,0.61,10.69
1479424220595518050,-0.03,0.61,10.5
1479424220605123612,0.06,0.64,10.1
1479424220615318989,0.15,0.67,9.52
1479424220625930473,0.2,0.67,9.52
1479424220635800301,0.2,0.63,9.42
1479424220645185428,0.19,0.58,9.61
1479424220655569656,0.21,0.54,9.81
1479424220665364100,0.25,0.54,10.4
1479424220675527747,0.3,0.59,10.2
1479424220685391001,0.28,0.64,10.3
1479424220695624815,0.17,0.69,10.4
1479424220705386039,0.1,0.7,9.81
1479424220715534527,0.15,0.62,10.1
1479424220726308856,0.23,0.52,9.81
1479424220735695475,0.29,0.49,10.01
1479424220745727237,0.32,0.54,9.32
1479424220755537548,0.28,0.63,9.12
1479424220765637012,0.28,0.7,9.32
1479424220775940046,0.34,0.71,9.71
1479424220785641442,0.37,0.7,10.01
1479424220795812881,0.33,0.69,10.1
1479424220805824783,0.2,0.65,10.2
1479424220815631004,0.04,0.59,10.4
1479424220826632797,-0.04,0.55,9.91
1479424220835759300,-0.06,0.55,9.61
1479424220846061489,-0.05,0.61,9.61
1479424220855637716,0.01,0.68,9.52
1479424220865694898,0.12,0.71,9.61
1479424220876105090,0.21,0.72,9.61
1479424220886085388,0.24,0.72,10.1
1479424220895674275,0.19,0.72,10.1
1479424220905791953,0.12,0.68,10.4
1479424220916038446,0.07,0.59,10.3
1479424220926995512,-0.02,0.52,10.1
1479424220936017589,-0.11,0.52,10.4
1479424220946057499,-0.07,0.56,10.5
1479424220955894827,0.04,0.58,10.5
1479424220966336182,0.2,0.6,10.4
1479424220976089839,0.33,0.61,10.1
1479424220986071458,0.32,0.64,9.91
1479424220996015381,0.18,0.66,10.1
1479424221006107590,0.05,0.63,9.71
1479424221015975080,0.0,0.55,10.01
1479424221026807347,0.0,0.51,10.4
1479424221036062516,0.06,0.51,10.5
1479424221046109198,0.18,0.54,10.79
1479424221056096650,0.29,0.57,10.01
1479424221066153700,0.3,0.56,9.32
1479424221076369826,0.28,0.52,9.42
1479424221086362677,0.27,0.47,10.2
1479424221096306602,0.27,0.45,10.1
1479424221106197926,0.25,0.46,10.1
1479424221116630185,0.22,0.52,9.81
1479424221126973833,0.22,0.63,9.42
1479424221136517246,0.26,0.71,9.12
1479424221146635356,0.31,0.72,9.22
1479424221156766293,0.32,0.66,9.42
1479424221166385758,0.31,0.57,9.52
1479424221177153164,0.28,0.5,9.71
1479424221186392592,0.24,0.5,9.22
1479424221196417873,0.15,0.56,9.52
1479424221206784615,0.1,0.64,9.61
1479424221216732130,0.15,0.7,9.81
1479424221227245758,0.23,0.72,10.01
1479424221236927782,0.3,0.71,9.81
1479424221246640996,0.33,0.68,9.22
1479424221256619688,0.27,0.63,9.22
1479424221266629303,0.14,0.57,9.42
1479424221277237722,0.08,0.53,9.52
1479424221286658881,0.08,0.53,9.81
1479424221296813643,0.08,0.57,9.91
1479424221306698163,0.1,0.64,9.71
1479424221316950399,0.13,0.67,10.1
1479424221327470388,0.17,0.67,10.01
1479424221336970766,0.18,0.64,9.91
1479424221346858537,0.09,0.59,10.2
1479424221357010577,0.0,0.56,10.2
1479424221366825076,0.02,0.54,9.52
1479424221377160732,0.12,0.53,8.83
1479424221387074757,0.21,0.55,9.22
1479424221396929436,0.24,0.57,9.42
1479424221406935581,0.2,0.59,10.01
1479424221417267649,0.13,0.59,9.71
1479424221427760117,0.12,0.59,9.52
1479424221437233532,0.1,0.58,9.71
1479424221447312039,0.05,0.54,10.1
1479424221457098123,0.0,0.48,9.71
1479424221467359759,-0.01,0.46,10.3
1479424221477108696,0.0,0.49,10.2
1479424221487155169,0.06,0.57,9.91
1479424221497196106,0.17,0.64,9.52
1479424221507153218,0.3,0.67,9.42
1479424221517283825,0.35,0.66,9.52
1479424221527936453,0.31,0.6,9.32
1479424221537284348,0.22,0.53,9.91
1479424221547240212,0.15,0.5,10.3
1479424221557335392,0.1,0.53,10.01
1479424221567366453,0.08,0.58,10.1
1479424221577520257,0.11,0.61,10.1
1479424221587357576,0.17,0.61,10.3
1479424221597364867,0.21,0.59,10.01
1479424221607629444,0.21,0.58,10.2
1479424221617701306,0.17,0.55,10.1
1479424221628184805,0.13,0.51,10.2
1479424221637627313,0.15,0.48,10.01
1479424221647836089,0.2,0.49,9.81
1479424221657802914,0.23,0.52,10.1
1479424221667629776,0.22,0.56,10.2
1479424221677741116,0.18,0.56,9.91
1479424221687683648,0.18,0.54,9.81
1479424221697639265,0.19,0.52,10.1
1479424221707912622,0.17,0.51,10.3
1479424221717743035,0.14,0.49,10.2
1479424221728465870,0.13,0.46,10.2
1479424221737855479,0.11,0.45,9.81
1479424221747761690,0.06,0.48,9.81
1479424221757802619,0.02,0.52,9.81
1479424221767834910,0.05,0.55,9.91
1479424221778137990,0.11,0.53,10.01
1479424221787855382,0.14,0.51,9.91
1479424221797954774,0.04,0.51,9.61
1479424221807929326,-0.06,0.52,9.12
1479424221818056907,-0.07,0.5,9.32
1479424221828618179,-0.04,0.46,10.01
1479424221838084949,-0.04,0.44,10.4
1479424221848312576,-0.02,0.48,10.5
1479424221858184764,-0.02,0.56,10.1
1479424221868027467,-0.03,0.61,9.81
1479424221878053475,-0.06,0.59,9.91
1479424221888094436,-0.11,0.52,10.1
1479424221898223414,-0.11,0.46,10.2
1479424221908137798,-0.07,0.43,10.3
1479424221918782708,-0.01,0.44,10.01
1479424221928903332,-0.06,0.49,10.2
1479424221938639351,-0.13,0.54,10.69
1479424221948195064,-0.06,0.6,10.2
1479424221958701192,0.03,0.64,10.69
1479424221968320297,0.03,0.61,10.01
1479424221978276584,-0.04,0.55,9.52
1479424221988321021,-0.09,0.49,9.71
1479424221998744298,-0.04,0.42,10.69
1479424222008408623,-0.01,0.39,10.99
1479424222018657917,-0.05,0.45,10.89
1479424222029133131,-0.04,0.55,10.1
1479424222038738509,0.02,0.62,10.1
1479424222048528508,0.09,0.61,10.4
1479424222058698607,0.09,0.48,11.09
1479424222068510867,0.01,0.35,10.99
1479424222078738576,-0.01,0.33,9.91
1479424222088798142,0.06,0.39,9.02
1479424222098929396,0.15,0.51,9.02
1479424222108616542,0.23,0.62,9.22
1479424222118966235,0.35,0.7,9.52
1479424222129403976,0.43,0.72,10.01
1479424222138740898,0.38,0.7,9.61
1479424222148726800,0.21,0.63,9.42
1479424222158776587,0.06,0.58,9.52
1479424222168783087,0.04,0.55,9.91
1479424222178811162,0.09,0.52,10.3
1479424222188869236,0.11,0.51,10.1
1479424222199050111,0.04,0.57,9.91
1479424222209138111,0.02,0.71,9.42
1479424222219004019,0.12,0.82,9.42
1479424222229616588,0.23,0.84,9.12
1479424222238959651,0.24,0.79,8.83
1479424222248997627,0.17,0.72,9.32
1479424222258987468,0.08,0.65,9.42
1479424222269000329,0.04,0.6,9.81
1479424222279361617,0.02,0.6,9.71
1479424222289138793,0.02,0.64,9.52
1479424222299095788,0.07,0.67,9.81
1479424222309057503,0.13,0.69,9.61
1479424222319231831,0.17,0.68,10.01
1479424222329857011,0.16,0.67,10.1
1479424222339213910,0.1,0.67,10.01
1479424222349304649,0.01,0.67,9.52
1479424222359231932,-0.01,0.65,9.52
1479424222369231006,-0.01,0.66,9.32
1479424222379246387,-0.05,0.69,9.22
1479424222389281158,-0.07,0.7,9.52
1479424222399668946,-0.01,0.69,9.71
1479424222409357889,0.08,0.67,9.52
1479424222419731675,0.15,0.67,9.32
1479424222430141331,0.15,0.66,9.61
1479424222439478069,0.13,0.64,9.81
1479424222449489181,0.13,0.61,10.1
1479424222459460781,0.13,0.61,9.81
1479424222469616887,0.08,0.65,9.42
1479424222479777878,0.05,0.67,9.12
1479424222489549269,0.07,0.67,9.42
1479424222499669462,0.11,0.66,9.42
1479424222509561944,0.12,0.63,9.52
1479424222519739705,0.07,0.6,9.61
1479424222530404059,0.03,0.62,9.52
1479424222539655613,0.03,0.65,9.32
1479424222549677166,0.02,0.7,9.61
1479424222559890384,-0.01,0.74,9.71
1479424222569741134,-0.03,0.73,9.91
1479424222580027573,0.0,0.7,9.71
1479424222589770460,0.04,0.68,9.61
1479424222599918172,0.06,0.67,9.12
1479424222609858831,0.11,0.67,9.02
1479424222620017150,0.2,0.65,9.52
1479424222630874174,0.22,0.63,9.81
1479424222640191037,0.12,0.65,9.61
1479424222649958878,0.02,0.69,9.91
1479424222659961982,-0.01,0.68,10.3
1479424222669963117,0.01,0.64,10.2
1479424222680020161,-0.02,0.58,10.2
1479424222690006462,-0.12,0.57,10.59
1479424222700158247,-0.19,0.61,10.4
1479424222710142677,-0.13,0.63,10.4
1479424222720093879,0.01,0.64,10.1
1479424222730809579,0.1,0.65,10.01
1479424222740178144,0.07,0.69,10.4
1479424222750152347,0.04,0.72,10.3
1479424222760193524,0.05,0.72,10.69
1479424222770287334,0.03,0.68,10.4
1479424222780539682,-0.03,0.65,10.1
1479424222790215729,-0.08,0.63,10.2
1479424222800302330,-0.11,0.56,11.28
1479424222810287451,-0.13,0.47,12.16
1479424222820361560,-0.08,0.47,11.48
1479424222831069071,-0.02,0.57,10.99
1479424222840654881,0.03,0.7,10.5
1479424222850755412,0.1,0.75,9.42
1479424222860421900,0.13,0.67,9.52
1479424222870409232,0.09,0.52,10.4
1479424222880475527,0.02,0.41,10.59
1479424222890729830,-0.01,0.4,11.18
1479424222900631855,-0.02,0.48,11.18
1479424222910639207,0.03,0.58,9.81
1479424222920895183,0.11,0.64,10.01
1479424222931307522,0.06,0.61,10.4
1479424222940656943,-0.09,0.47,10.5
1479424222950614809,-0.18,0.33,10.1
1479424222960675778,-0.22,0.31,9.22
1479424222970791508,-0.22,0.42,8.73
1479424222980736586,-0.15,0.56,9.42
1479424222990754319,-0.06,0.67,9.81
1479424223000778323,-0.08,0.75,9.42
1479424223010855099,-0.24,0.76,9.52
1479424223020803927,-0.42,0.71,9.52
1479424223031651573,-0.51,0.67,9.71
1479424223040868699,-0.49,0.61,9.32
1479424223050933209,-0.44,0.54,8.93
1479424223060908041,-0.39,0.49,9.42
1479424223071030630,-0.33,0.51,9.22
1479424223080989754,-0.32,0.6,8.63
1479424223090962501,-0.38,0.67,8.83
1479424223101073092,-0.46,0.7,9.42
1479424223111056191,-0.45,0.67,9.42
1479424223121097418,-0.38,0.62,9.61
1479424223131868491,-0.38,0.57,9.52
1479424223141058242,-0.54,0.51,9.61
1479424223151066378,-0.67,0.46,9.42
1479424223161125674,-0.59,0.43,9.61
1479424223171197009,-0.42,0.44,9.81
1479424223181211406,-0.31,0.49,10.1
1479424223191267322,-0.32,0.56,9.61
1479424223201239362,-0.42,0.66,9.22
1479424223211337245,-0.5,0.72,9.02
1479424223221266142,-0.54,0.73,8.73
1479424223232037415,-0.53,0.7,9.02
1479424223241382706,-0.41,0.63,9.32
1479424223251405053,-0.23,0.54,9.42
1479424223261399075,-0.13,0.5,9.52
1479424223271405704,-0.25,0.52,9.52
1479424223281750400,-0.49,0.54,9.52
1479424223291426327,-0.57,0.55,10.01
1479424223301463748,-0.46,0.53,9.71
1479424223311485710,-0.39,0.52,10.1
1479424223321534768,-0.42,0.54,9.81
1479424223332535972,-0.49,0.54,10.1
1479424223341867317,-0.51,0.5,10.4
1479424223351662888,-0.48,0.49,9.81
1479424223361614355,-0.42,0.5,9.42
1479424223371659902,-0.33,0.51,9.61
1479424223381926710,-0.29,0.5,9.81
1479424223391698723,-0.36,0.46,9.81
1479424223401960772,-0.46,0.44,10.01
1479424223411789899,-0.54,0.46,9.71
1479424223422038804,-0.58,0.48,10.2
1479424223433021291,-0.55,0.46,10.2
1479424223442073418,-0.49,0.46,9.12
1479424223451864709,-0.43,0.49,9.32
1479424223462115983,-0.41,0.5,9.81
1479424223471974093,-0.4,0.47,10.01
1479424223482193569,-0.39,0.44,10.4
1479424223491959643,-0.4,0.4,10.99
1479424223502197071,-0.46,0.37,10.5
1479424223511962955,-0.53,0.37,10.4
1479424223522243156,-0.62,0.34,10.1
1479424223533221738,-0.75,0.33,9.52
1479424223542616395,-0.82,0.33,9.52
1479424223552314329,-0.8,0.34,10.2
1479424223562315667,-0.72,0.39,10.4
1479424223572174712,-0.53,0.44,10.69
1479424223582355978,-0.26,0.46,10.69
1479424223592177394,-0.09,0.47,10.4
1479424223602433534,-0.1,0.41,10.59
1479424223612284164,-0.16,0.29,10.89
1479424223622493128,-0.22,0.17,11.09
1479424223633201415,-0.25,0.11,10.89
1479424223642508608,-0.22,0.1,10.4
1479424223652302459,-0.13,0.14,10.5
1479424223662617310,-0.03,0.19,10.89
1479424223672370266,0.06,0.22,10.69
1479424223682655005,0.19,0.23,10.59
1479424223692459155,0.31,0.22,10.5
1479424223702656254,0.26,0.16,10.5
1479424223712512115,0.08,0.12,10.79
1479424223722747080,-0.04,0.1,10.59
1479424223733465020,-0.05,0.11,10.59
1479424223742740179,0.06,0.14,10.69
1479424223752653392,0.22,0.15,10.69
1479424223762763972,0.26,0.16,10.5
1479424223772628671,0.15,0.2,10.1
1479424223782829398,0.01,0.2,10.1
1479424223792639516,-0.06,0.18,10.01
1479424223802870673,-0.13,0.17,8.93
1479424223812742533,-0.19,0.18,8.73
1479424223822860433,-0.22,0.19,8.83
1479424223833514240,-0.19,0.21,9.32
1479424223843617306,-0.16,0.2,9.52
1479424223853178680,-0.17,0.18,9.42
1479424223863616416,-0.26,0.15,8.93
1479424223872880338,-0.41,0.09,9.71
1479424223883743036,-0.54,0.03,10.01
1479424223892963837,-0.65,0.01,9.71
1479424223903733283,-0.72,0.03,10.01
1479424223912916192,-0.73,0.09,9.91
1479424223923740645,-0.68,0.16,9.71
1479424223933732846,-0.55,0.22,9.42
1479424223943756749,-0.38,0.23,9.61
1479424223953062575,-0.31,0.21,9.61
1479424223963731286,-0.36,0.17,9.81
1479424223973740019,-0.42,0.13,9.81
1479424223983733807,-0.46,0.14,9.61
1479424223993319616,-0.47,0.16,9.32
1479424224003742437,-0.43,0.16,9.52
1479424224013324017,-0.36,0.17,9.91
1479424224023765328,-0.27,0.18,10.3
1479424224034019321,-0.22,0.17,10.3
1479424224043733388,-0.19,0.14,10.1
1479424224053309586,-0.18,0.07,10.01
1479424224063785301,-0.18,0.01,9.61
1479424224073740790,-0.16,0.02,8.83
1479424224083746619,-0.13,0.05,9.02
1479424224093714512,-0.11,0.01,9.91
1479424224103776760,-0.11,-0.01,9.61
1479424224113758235,-0.11,0.0,10.01
1479424224123759528,-0.12,0.04,10.2
1479424224134240673,-0.09,0.07,9.81
1479424224143780542,-0.08,0.04,9.61
1479424224153824477,-0.15,0.04,8.93
1479424224163739486,-0.26,0.06,8.83
1479424224173731075,-0.33,0.04,9.52
1479424224183739585,-0.35,0.04,9.61
1479424224193778495,-0.18,0.07,9.02
1479424224203774546,0.09,0.12,9.42
1479424224214010150,0.25,0.16,9.71
1479424224223970363,0.27,0.16,9.52
1479424224234450021,0.11,0.14,9.42
1479424224244249956,-0.12,0.09,9.22
1479424224253801093,-0.29,0.05,9.02
1479424224263971551,-0.33,0.0,8.93
1479424224273910756,-0.29,0.0,9.22
1479424224284013884,-0.29,0.05,9.71
1479424224293902067,-0.27,0.08,10.5
1479424224304069916,-0.2,0.12,10.1
1479424224313959411,-0.2,0.16,9.81
1479424224324248601,-0.24,0.16,10.01
1479424224334697500,-0.31,0.07,10.4
1479424224344501711,-0.55,0.0,9.81
1479424224354118413,-0.76,-0.03,10.59
1479424224364239576,-0.68,-0.09,11.58
1479424224374101777,-0.35,-0.04,10.5
1479424224384221284,0.02,0.1,9.81
1479424224394159139,0.27,0.2,9.42
1479424224404244783,0.28,0.18,9.52
1479424224414185626,0.11,0.06,11.09
1479424224424909188,-0.17,-0.06,11.18
1479424224435665244,-0.35,-0.09,10.89
1479424224444482846,-0.28,-0.04,11.09
1479424224454353879,-0.11,-0.01,10.79
1479424224464486426,-0.02,-0.03,10.2
1479424224474844370,0.0,-0.03,10.59
1479424224484483832,0.02,-0.03,11.48
1479424224495148491,0.14,-0.07,11.09
1479424224504731938,0.4,-0.04,10.1
1479424224514870329,0.6,0.0,9.52
1479424224525159821,0.53,0.01,9.42
1479424224535949290,0.24,0.0,9.81
1479424224544988749,0.0,-0.04,10.2
1479424224554980117,-0.03,-0.06,10.5
1479424224564959947,0.12,-0.04,10.4
1479424224575058684,0.21,-0.02,10.79
1479424224585013885,0.15,0.0,10.3
1479424224595543278,0.06,-0.02,9.71
1479424224604949467,0.04,-0.08,9.42
1479424224615048990,0.11,-0.12,9.42
1479424224625055442,0.25,-0.12,8.93
1479424224636071577,0.31,-0.05,8.83
1479424224645115687,0.25,0.07,9.61
1479424224655548844,0.08,0.16,9.71
1479424224665177132,-0.11,0.18,9.42
1479424224675072994,-0.33,0.17,9.32
1479424224685133972,-0.54,0.13,9.22
1479424224695621692,-0.68,0.07,9.02
1479424224705213867,-0.74,0.0,10.2
1479424224715058992,-0.74,-0.05,10.01
1479424224725152522,-0.57,-0.02,9.81
1479424224736039148,-0.29,0.1,9.12
1479424224745425177,-0.05,0.23,9.42
1479424224755311108,0.07,0.26,9.52
1479424224765176230,0.06,0.18,9.71
1479424224775510556,-0.11,0.12,9.52
1479424224785162328,-0.36,0.12,9.52
1479424224795630138,-0.5,0.13,9.91
1479424224805150603,-0.37,0.13,9.71
1479424224815627511,-0.18,0.14,9.71
1479424224825179382,-0.18,0.15,9.61
1479424224836294996,-0.29,0.16,9.61
1479424224845615454,-0.33,0.15,10.01
1479424224855646673,-0.23,0.12,10.4
1479424224865407481,-0.12,0.11,10.2
1479424224875786291,-0.1,0.15,9.91
1479424224885406880,-0.19,0.19,9.71
1479424224895734645,-0.38,0.21,9.52
1479424224905434872,-0.54,0.24,9.52
1479424224915621879,-0.52,0.27,9.42
1479424224929180821,-0.34,0.3,9.71
1479424224936512307,-0.16,0.32,9.81
1479424224945670602,-0.09,0.33,9.91
1479424224955781654,-0.1,0.35,9.61
1479424224965651328,-0.17,0.35,9.22
1479424224975823569,-0.31,0.33,8.73
1479424224985650169,-0.42,0.28,9.52
1479424224996044838,-0.36,0.25,10.1
1479424225005695864,-0.19,0.27,10.2
1479424225015786240,-0.1,0.35,9.81
1479424225025900971,-0.11,0.42,9.81
1479424225036496512,-0.21,0.43,9.32
1479424225046109358,-0.33,0.41,10.2
1479424225055814250,-0.35,0.35,10.01
1479424225065903083,-0.31,0.29,10.2
1479424225076039038,-0.19,0.29,10.2
1479424225086140063,-0.05,0.33,10.3
1479424225095891245,0.06,0.4,9.32
1479424225106115121,0.12,0.5,9.02
1479424225115861542,0.03,0.57,9.32
1479424225126159743,0.0,0.54,9.81
1479424225136640919,0.06,0.45,9.81
1479424225146118285,0.03,0.4,10.01
1479424225155992441,-0.11,0.39,9.22
1479424225166389191,-0.28,0.39,10.2
1479424225176030079,-0.43,0.38,10.79
1479424225186096806,-0.43,0.36,10.5
1479424225196154752,-0.24,0.37,9.91
1479424225206098091,-0.02,0.36,10.1
1479424225216859403,0.1,0.38,10.4
1479424225226359486,0.07,0.38,9.91
1479424225236901897,-0.07,0.38,8.93
1479424225246246329,-0.17,0.42,9.52
1479424225256473095,-0.17,0.44,10.2
1479424225266244181,-0.17,0.45,10.01
1479424225276259755,-0.19,0.49,9.52
1479424225286616700,-0.28,0.54,9.02
1479424225296341769,-0.43,0.55,8.93
1479424225306344688,-0.46,0.5,10.01
1479424225316614147,-0.34,0.43,9.71
1479424225326393783,-0.22,0.4,9.52
1479424225337308634,-0.2,0.43,8.44
1479424225346629090,-0.2,0.45,9.61
1479424225356745100,-0.14,0.42,10.79
1479424225366490367,-0.08,0.43,10.5
1479424225376734148,-0.05,0.53,9.91
1479424225386553400,-0.02,0.64,9.52
1479424225396745292,-0.02,0.66,9.61
1479424225406619189,-0.09,0.61,8.63
1479424225417197251,-0.23,0.56,8.44
1479424225426929449,-0.28,0.57,8.93
1479424225437459445,-0.18,0.55,10.01
1479424225446701513,0.0,0.55,10.59
1479424225457121657,0.24,0.62,9.71
1479424225466735766,0.35,0.72,8.63
1479424225477184411,0.15,0.77,9.32
1479424225486742521,-0.16,0.66,10.3
1479424225497052505,-0.32,0.49,10.2
1479424225506843259,-0.22,0.38,10.2
1479424225516904382,-0.01,0.4,10.4
1479424225527138997,0.12,0.49,10.4
1479424225537737597,0.21,0.57,9.91
1479424225546939605,0.19,0.63,9.81
1479424225557017950,0.08,0.64,9.71
1479424225567135351,0.03,0.61,9.52
1479424225577244183,0.0,0.61,9.42
1479424225587139070,-0.11,0.65,9.42
1479424225597197588,-0.23,0.66,9.02
1479424225607111877,-0.18,0.62,9.32
1479424225617260167,-0.04,0.58,9.71
1479424225627098879,-0.05,0.56,10.5
1479424225637969264,-0.03,0.59,10.4
1479424225647370554,0.01,0.65,10.4
1479424225657268300,-0.01,0.67,10.3
1479424225667631417,-0.11,0.67,9.61
1479424225677245291,-0.23,0.66,8.93
1479424225687244352,-0.23,0.64,9.52
1479424225697473751,-0.13,0.63,10.01
1479424225707288464,-0.01,0.61,9.91
1479424225717885949,0.09,0.63,9.71
1479424225727349503,0.05,0.69,9.81
1479424225738158832,-0.11,0.74,9.81
1479424225747398705,-0.13,0.73,9.91
1479424225757447444,-0.02,0.65,10.3
1479424225767645330,-0.14,0.61,10.4
1479424225777627947,-0.44,0.67,9.81
1479424225787760021,-0.52,0.73,9.32
1479424225797519077,-0.28,0.77,9.71
1479424225807539949,0.05,0.73,9.52
1479424225818058618,0.27,0.66,9.12
1479424225827633392,0.3,0.6,9.81
1479424225838305036,0.19,0.57,10.59
1479424225847693391,0.03,0.62,9.81
1479424225858011978,-0.1,0.7,9.61
1479424225867820949,-0.14,0.76,9.81
1479424225877849485,-0.09,0.74,10.2
1479424225887697128,0.02,0.65,10.01
1479424225898132212,0.12,0.57,9.71
1479424225907782688,0.13,0.57,9.71
1479424225918026410,0.11,0.64,9.22
1479424225927930113,0.12,0.73,8.53
1479424225938890774,0.12,0.77,9.32
1479424225947879995,0.1,0.75,10.5
1479424225957888271,0.06,0.74,10.3
1479424225967934469,0.02,0.74,10.01
1479424225978364734,-0.01,0.74,9.22
1479424225987970405,-0.04,0.7,8.83
1479424225998365436,-0.08,0.6,9.42
1479424226008024978,-0.15,0.49,10.5
1479424226018282773,-0.1,0.5,10.2
1479424226028025241,0.05,0.6,10.4
1479424226039152299,0.18,0.69,10.3
1479424226048069600,0.23,0.78,8.93
1479424226058117947,0.2,0.83,8.83
1479424226068184361,0.07,0.77,9.52
1479424226078209872,-0.05,0.62,10.5
1479424226088178842,-0.07,0.49,10.5
1479424226098432827,-0.01,0.47,10.4
1479424226108209605,0.08,0.58,9.91
1479424226118258517,0.2,0.7,10.01
1479424226128390941,0.29,0.69,9.32
1479424226139333768,0.34,0.61,9.52
1479424226148401162,0.34,0.56,9.42
1479424226158364586,0.33,0.56,9.52
1479424226168409845,0.36,0.58,9.52
1479424226178777793,0.4,0.58,10.79
1479424226188641329,0.42,0.57,9.91
1479424226198551471,0.41,0.6,10.1
1479424226208731742,0.42,0.62,9.81
1479424226218969605,0.47,0.57,9.71
1479424226228528817,0.48,0.48,10.1
1479424226239578665,0.48,0.41,10.59
1479424226248616973,0.46,0.41,10.2
1479424226258929006,0.49,0.47,9.81
1479424226268653739,0.57,0.52,9.52
1479424226278908362,0.65,0.55,9.42
1479424226288783078,0.73,0.58,9.32
1479424226298990749,0.75,0.6,9.61
1479424226308709598,0.63,0.57,10.2
1479424226319006893,0.43,0.54,10.01
1479424226328802799,0.34,0.53,9.32
1479424226339722001,0.34,0.54,9.32
1479424226348869800,0.32,0.56,9.42
1479424226359184236,0.24,0.53,9.32
1479424226368912492,0.19,0.45,10.1
1479424226379061024,0.2,0.41,10.01
1479424226388988965,0.24,0.47,10.2
1479424226399166609,0.26,0.55,9.42
1479424226409194692,0.21,0.57,9.61
1479424226419250697,0.12,0.55,9.32
1479424226429471907,0.1,0.5,10.01
1479424226439803920,0.11,0.46,10.3
1479424226449053110,0.14,0.46,10.1
1479424226459264059,0.21,0.46,9.81
1479424226469119041,0.29,0.47,9.52
1479424226479649401,0.29,0.51,9.71
1479424226489186698,0.23,0.55,10.01
1479424226499352929,0.26,0.54,9.61
1479424226509233543,0.39,0.5,9.91
1479424226519733964,0.51,0.42,9.91
1479424226529292478,0.56,0.39,9.42
1479424226540072313,0.56,0.41,9.52
1479424226549319806,0.52,0.43,10.01
1479424226559410666,0.44,0.42,10.69
1479424226569403855,0.31,0.4,10.99
1479424226579369130,0.16,0.4,10.99
1479424226589429879,0.06,0.39,10.59
1479424226599542716,0.03,0.39,10.3
1479424226609470421,0.11,0.4,9.71
1479424226619870255,0.29,0.42,8.93
1479424226629515738,0.49,0.48,9.22
1479424226640309341,0.62,0.47,9.71
1479424226649614053,0.68,0.42,10.1
1479424226659630773,0.64,0.38,10.79
1479424226669617720,0.45,0.4,11.18
1479424226679658315,0.21,0.48,10.89
1479424226689671357,0.03,0.54,10.69
1479424226700015543,0.02,0.51,10.01
1479424226709705568,0.2,0.41,9.71
1479424226719783066,0.37,0.29,9.81
1479424226729736644,0.5,0.19,10.2
1479424226740545268,0.62,0.15,10.4
1479424226749801844,0.7,0.21,10.59
1479424226759802809,0.77,0.37,10.5
1479424226769851483,0.79,0.52,9.81
1479424226780135574,0.68,0.61,9.22
1479424226789959491,0.44,0.54,9.91
1479424226800302543,0.18,0.36,10.79
1479424226809933901,0.07,0.24,10.69
1479424226820177891,0.21,0.21,10.5
1479424226830271665,0.46,0.23,10.5
1479424226840746228,0.76,0.33,9.32
1479424226850117771,0.96,0.44,9.71
1479424226860320709,0.91,0.52,9.81
1479424226870050889,0.67,0.53,10.1
1479424226880476545,0.3,0.48,10.2
1479424226890213556,0.02,0.43,10.4
1479424226900425108,0.03,0.42,9.61
1479424226910190999,0.29,0.42,9.42
1479424226920632327,0.57,0.4,9.52
1479424226930421159,0.67,0.33,10.01
1479424226940974451,0.59,0.26,10.4
1479424226950278409,0.48,0.24,10.3
1479424226960515951,0.42,0.3,10.01
1479424226970365607,0.33,0.37,9.71
1479424226980659602,0.24,0.37,9.52
1479424226990426118,0.2,0.36,9.61
1479424227000729271,0.15,0.34,9.32
1479424227010460282,0.08,0.32,9.02
1479424227020712000,0.03,0.28,9.71
1479424227030613646,0.02,0.25,10.01
1479424227041265654,0.06,0.27,9.61
1479424227050754100,0.17,0.32,9.02
1479424227060734530,0.22,0.35,9.12
1479424227070759352,0.15,0.34,9.32
1479424227080766125,0.06,0.34,8.73
1479424227090776680,-0.01,0.34,9.02
1479424227100891065,-0.09,0.32,9.81
1479424227110650121,-0.13,0.31,9.81
1479424227120870762,-0.12,0.33,9.71
1479424227130745790,-0.09,0.38,9.61
1479424227141470774,-0.09,0.41,9.42
1479424227150732234,-0.11,0.39,9.02
1479424227160930334,-0.12,0.33,9.42
1479424227170988620,-0.11,0.31,9.52
1479424227180977577,-0.04,0.31,9.02
1479424227190852386,0.04,0.33,9.22
1479424227200989610,0.11,0.35,9.12
1479424227210906336,0.14,0.39,8.93
1479424227221234600,0.15,0.41,9.81
1479424227230973711,0.16,0.39,10.4
1479424227241696821,0.2,0.35,10.2
1479424227251071709,0.22,0.31,10.1
1479424227261096098,0.21,0.28,10.1
1479424227271061786,0.19,0.26,10.4
1479424227281106395,0.17,0.23,10.1
1479424227291136710,0.18,0.21,9.32
1479424227301174892,0.22,0.25,9.02
1479424227311142737,0.31,0.29,9.42
1479424227321319871,0.4,0.31,10.1
1479424227331220933,0.42,0.34,9.81
1479424227342051779,0.36,0.36,9.52
1479424227351245300,0.29,0.36,9.81
1479424227361363631,0.27,0.33,10.1
1479424227371319379,0.25,0.28,10.01
1479424227381322895,0.17,0.24,10.2
1479424227391395764,0.09,0.21,10.5
1479424227401478933,0.05,0.2,10.5
1479424227411406236,0.02,0.22,10.3
1479424227421490986,0.03,0.3,9.81
1479424227431505268,0.06,0.38,9.61
1479424227442161389,0.07,0.41,9.52
1479424227451559913,0.08,0.38,9.71
1479424227461740438,0.06,0.32,9.81
1479424227471629835,0.0,0.27,9.61
1479424227481845485,-0.05,0.26,9.81
1479424227491620027,-0.11,0.28,9.91
1479424227501631822,-0.17,0.28,10.2
1479424227511803021,-0.18,0.29,10.01
1479424227521641958,-0.14,0.29,10.01
1479424227531700515,-0.08,0.28,9.81
1479424227542648949,-0.05,0.26,10.3
1479424227551764835,-0.03,0.25,10.5
1479424227562057551,0.0,0.24,10.3
1479424227571783697,0.03,0.25,10.3
1479424227581853979,0.0,0.28,10.01
1479424227591864120,-0.06,0.28,10.01
1479424227601847218,-0.08,0.26,10.1
1479424227611972205,-0.01,0.24,10.2
1479424227621911923,0.04,0.24,10.01
1479424227631889938,0.05,0.27,9.71
1479424227642654761,0.03,0.33,9.81
1479424227652060025,0.01,0.36,9.91
1479424227662034697,0.0,0.34,9.71
1479424227672015026,-0.02,0.29,10.3
1479424227682053966,-0.06,0.23,10.2
1479424227692135368,-0.06,0.21,10.4
1479424227702092060,0.0,0.21,10.2
1479424227712107442,0.05,0.22,10.4
1479424227722209327,0.04,0.21,10.2
1479424227732186219,0.02,0.21,10.01
1479424227743721883,-0.02,0.23,9.61
1479424227752221466,-0.08,0.26,10.01
1479424227762198496,-0.16,0.27,9.81
1479424227772261083,-0.24,0.28,10.01
1479424227782283737,-0.25,0.28,10.1
1479424227792369068,-0.18,0.26,10.5
1479424227802305304,-0.08,0.27,10.2
1479424227812356025,0.0,0.29,9.52
1479424227822408572,0.06,0.29,9.52
1479424227832429580,0.09,0.27,9.52
1479424227843930704,0.07,0.25,9.81
1479424227852466796,0.0,0.24,9.42
1479424227862615562,-0.03,0.26,9.02
1479424227872509054,-0.02,0.3,9.42
1479424227882512589,-0.02,0.32,9.71
1479424227892615107,0.0,0.33,9.32
1479424227902611369,0.03,0.32,8.63
1479424227912626990,0.02,0.28,9.12
1479424227922615257,0.03,0.22,9.61
1479424227932971639,0.07,0.18,9.52
1479424227944549223,0.12,0.2,9.42
1479424227952730597,0.12,0.24,8.93
1479424227962692972,0.08,0.27,9.22
1479424227972781421,0.07,0.26,9.02
1479424227983618952,0.05,0.25,8.73
1479424227993194161,0.04,0.26,9.02
1479424228002775710,0.06,0.26,9.61
1479424228013195522,0.1,0.27,9.42
1479424228023649528,0.12,0.32,8.83
1479424228033180552,0.17,0.38,8.83
1479424228044903637,0.26,0.43,8.44
1479424228053173757,0.3,0.43,8.44
1479424228063745906,0.24,0.39,8.53
1479424228073220267,0.14,0.35,9.42
1479424228083784060,0.11,0.33,9.81
1479424228093174828,0.07,0.38,9.52
1479424228103805175,0.04,0.44,8.93
1479424228113207621,0.12,0.47,9.02
1479424228123800529,0.24,0.42,9.61
1479424228133457594,0.26,0.32,10.1
1479424228144940864,0.2,0.25,10.2
1479424228153446220,0.13,0.26,10.4
1479424228163804772,0.11,0.3,10.3
1479424228173524509,0.21,0.32,9.81
1479424228183800926,0.36,0.3,9.32
1479424228193465696,0.34,0.27,9.02
1479424228204175826,0.13,0.26,10.01
1479424228213426829,-0.01,0.23,10.4
1479424228223832445,0.01,0.2,10.5
1479424228233411174,0.11,0.21,10.01
1479424228245031064,0.18,0.27,9.42
1479424228253476520,0.17,0.33,10.2
1479424228263834276,0.06,0.32,10.69
1479424228273615741,-0.08,0.3,10.4
1479424228283787484,-0.12,0.3,10.2
1479424228293879793,-0.06,0.33,9.71
1479424228303801267,0.01,0.39,10.01
1479424228313610722,0.05,0.45,9.52
1479424228323757591,0.04,0.47,9.22
1479424228333655699,0.02,0.48,9.91
1479424228344737137,-0.02,0.47,9.71
1479424228353717179,-0.1,0.46,9.91
1479424228363776035,-0.18,0.46,9.71
1479424228373691902,-0.23,0.47,9.71
1479424228384027387,-0.28,0.47,10.01
1479424228393784840,-0.33,0.45,10.4
1479424228404182881,-0.4,0.45,10.4
1479424228413836908,-0.43,0.45,10.79
1479424228424052803,-0.33,0.44,10.79
1479424228433957830,-0.24,0.46,10.1
1479424228445109095,-0.24,0.49,10.01
1479424228453930571,-0.25,0.49,9.91
1479424228464054041,-0.28,0.48,10.1
1479424228473970340,-0.34,0.45,10.89
1479424228484344361,-0.41,0.42,10.99
1479424228494006551,-0.48,0.47,10.3
1479424228504284995,-0.47,0.56,10.79
1479424228514049285,-0.4,0.56,11.09
1479424228524274374,-0.36,0.51,10.5
1479424228534353502,-0.5,0.51,10.5
1479424228545310411,-0.68,0.5,11.09
1479424228554169875,-0.6,0.48,10.89
1479424228564276137,-0.32,0.46,10.59
1479424228574223883,-0.1,0.45,10.2
1479424228585006911,0.05,0.5,10.5
1479424228594287463,0.12,0.59,10.89
1479424228604528333,0.02,0.61,10.99
1479424228614278871,-0.1,0.58,10.69
1479424228624489668,-0.2,0.53,10.89
1479424228634298967,-0.23,0.49,10.79
1479424228645292071,-0.19,0.46,10.1
1479424228654934779,-0.11,0.41,10.5
1479424228664523796,-0.06,0.38,10.89
1479424228674913106,-0.02,0.43,11.38
1479424228684493811,0.09,0.58,10.3
1479424228695261960,0.34,0.68,9.42
1479424228704969676,0.64,0.65,9.02
1479424228715023969,0.68,0.56,9.52
1479424228725241409,0.39,0.48,9.61
1479424228735305654,0.14,0.44,10.3
1479424228745883877,0.1,0.48,10.4
1479424228755278096,0.27,0.54,9.61
1479424228764986676,0.51,0.55,8.73
1479424228775043979,0.6,0.56,9.22
1479424228785007139,0.47,0.6,9.02
1479424228795304387,0.3,0.6,10.1
1479424228805003505,0.24,0.56,10.4
1479424228815048149,0.3,0.55,9.81
1479424228825212396,0.35,0.59,9.42
1479424228835054789,0.39,0.64,8.73
1479424228846034507,0.38,0.66,8.73
1479424228855343107,0.29,0.64,8.73
1479424228865244433,0.17,0.6,9.61
1479424228875323133,0.17,0.61,9.52
1479424228885434613,0.26,0.67,9.61
1479424228895320806,0.28,0.7,9.02
1479424228905298977,0.22,0.72,8.83
1479424228915056749,0.18,0.71,9.32
1479424228925220353,0.14,0.64,9.71
1479424228935781540,0.12,0.59,9.91
1479424228946286513,0.23,0.56,9.61
1479424228955808953,0.3,0.54,9.42
1479424228965183917,0.2,0.58,9.22
1479424228975321043,0.09,0.62,9.42
1479424228985489906,0.1,0.63,9.42
1479424228995336607,0.18,0.63,9.81
1479424229005492278,0.23,0.63,9.61
1479424229015737227,0.18,0.6,10.3
1479424229025514703,0.05,0.59,10.01
1479424229035792244,-0.03,0.62,9.32
1479424229046213827,0.0,0.65,9.52
1479424229055421918,0.07,0.62,10.01
1479424229065695942,0.09,0.58,9.81
1479424229075784763,0.11,0.57,9.42
1479424229085540000,0.21,0.6,9.61
1479424229096071587,0.28,0.64,10.1
1479424229105851107,0.2,0.62,10.5
1479424229115501822,0.1,0.55,10.5
1479424229125693961,0.08,0.53,10.59
1479424229136014086,0.14,0.61,9.81
1479424229146625547,0.24,0.63,10.4
1479424229156177694,0.23,0.58,9.71
1479424229165707225,0.2,0.53,9.71
1479424229175865666,0.27,0.5,9.61
1479424229185709846,0.36,0.51,9.61
1479424229195807509,0.41,0.55,9.81
1479424229206198229,0.42,0.59,9.71
1479424229215836234,0.42,0.6,10.5
1479424229226335887,0.42,0.62,10.01
1479424229235830264,0.39,0.59,9.52
1479424229247057922,0.32,0.51,9.71
1479424229255888033,0.33,0.43,9.52
1479424229266185379,0.42,0.39,9.42
1479424229275969709,0.53,0.4,9.42
1479424229285949385,0.69,0.44,9.52
1479424229296254755,0.85,0.52,9.71
1479424229306364655,0.82,0.58,9.81
1479424229315984989,0.69,0.64,9.42
1479424229326444453,0.57,0.65,9.42
1479424229336533480,0.47,0.6,9.71
1479424229347049020,0.4,0.56,9.81
1479424229356098541,0.43,0.56,9.42
1479424229366429048,0.56,0.59,9.32
1479424229376160991,0.69,0.6,9.61
1479424229386449212,0.76,0.62,9.52
1479424229396279607,0.84,0.63,9.71
1479424229406408147,0.88,0.63,10.4
1479424229416202896,0.85,0.63,10.1
1479424229426388011,0.81,0.61,10.01
1479424229436820279,0.74,0.59,10.3
1479424229447232218,0.6,0.58,10.1
1479424229456805913,0.48,0.55,10.4
1479424229466445820,0.47,0.48,10.99
1479424229476364149,0.51,0.44,10.59
1479424229486907947,0.6,0.43,10.59
1479424229496431942,0.7,0.44,10.2
1479424229506695664,0.71,0.46,10.59
1479424229516730968,0.6,0.47,10.69
1479424229526638896,0.44,0.44,10.89
1479424229536814141,0.25,0.44,10.5
1479424229547487311,0.04,0.46,10.79
1479424229556728487,-0.11,0.45,10.3
1479424229566699247,-0.14,0.41,10.4
1479424229576783916,-0.06,0.37,10.3
1479424229586661251,0.08,0.35,10.3
1479424229596728085,0.2,0.37,10.3
1479424229606821943,0.21,0.45,9.71
1479424229616944501,0.14,0.51,9.61
1479424229627016911,0.03,0.53,9.61
1479424229636884068,-0.09,0.51,10.2
1479424229647616135,-0.19,0.46,10.3
1479424229657050134,-0.23,0.4,10.2
1479424229666855576,-0.2,0.37,10.1
1479424229677011148,-0.13,0.36,9.71
1479424229686854697,-0.03,0.4,9.42
1479424229697216336,0.05,0.44,10.1
1479424229706973120,0.05,0.47,10.59
1479424229717197023,0.0,0.5,10.69
1479424229727287621,-0.06,0.55,10.4
1479424229737335926,-0.12,0.59,10.2
1479424229747800068,-0.1,0.58,9.91
1479424229757095319,-0.08,0.55,9.52
1479424229767309889,-0.05,0.5,9.52
1479424229777270314,0.04,0.44,9.52
1479424229787181509,0.16,0.4,10.3
1479424229797474075,0.32,0.4,9.81
1479424229807142396,0.49,0.43,9.71
1479424229817268595,0.57,0.49,9.71
1479424229827234526,0.59,0.54,10.01
1479424229837288070,0.55,0.52,10.01
1479424229847981693,0.41,0.44,10.3
1479424229857489370,0.24,0.33,10.4
1479424229867650770,0.19,0.25,10.4
1479424229877432670,0.3,0.22,10.4
1479424229887366480,0.52,0.26,9.61
1479424229897629076,0.79,0.32,9.12
1479424229907408774,0.93,0.38,9.22
1479424229917646440,0.87,0.43,9.12
1479424229927470629,0.69,0.46,8.83
1479424229937907732,0.51,0.48,8.53
1479424229948230597,0.39,0.5,9.12
1479424229957626908,0.34,0.5,9.02
1479424229967511950,0.35,0.46,9.02
1479424229977619424,0.41,0.41,9.02
1479424229987935312,0.5,0.39,9.02
1479424229997656407,0.55,0.39,9.32
1479424230007640351,0.51,0.41,9.52
1479424230017945677,0.45,0.44,9.42
1479424230027683545,0.37,0.48,9.02
1479424230037884739,0.3,0.52,9.02
1479424230048459913,0.27,0.52,9.32
1479424230058184242,0.29,0.5,9.52
1479424230067807542,0.34,0.45,9.52
1479424230077847486,0.37,0.43,9.22
1479424230087854706,0.38,0.46,8.73
1479424230098368289,0.36,0.48,8.63
1479424230107923495,0.32,0.48,8.83
1479424230118101175,0.27,0.48,9.42
1479424230128182611,0.17,0.47,9.42
1479424230138137054,0.06,0.44,9.22
1479424230148698873,0.0,0.41,8.63
1479424230158333939,0.01,0.36,8.93
1479424230168005240,0.05,0.3,10.1
1479424230178179850,0.05,0.26,10.5
1479424230188113355,0.0,0.27,10.2
1479424230198220887,-0.1,0.31,9.71
1479424230208133813,-0.17,0.33,9.81
1479424230218330494,-0.13,0.31,10.1
1479424230228478625,-0.05,0.25,10.79
1479424230238380158,0.06,0.26,10.5
1479424230248940847,0.21,0.32,10.01
1479424230258626996,0.3,0.36,9.42
1479424230268273162,0.29,0.39,9.22
1479424230278408070,0.3,0.43,9.12
1479424230288611424,0.35,0.47,9.61
1479424230298731660,0.41,0.49,10.2
1479424230308627394,0.38,0.43,11.09
1479424230318480082,0.3,0.33,10.4
1479424230328447568,0.22,0.3,10.1
1479424230338529977,0.1,0.36,9.71
1479424230349237124,0.01,0.37,10.5
1479424230358788119,0.15,0.26,11.09
1479424230368622555,0.51,0.15,11.18
1479424230378684087,0.84,0.16,10.3
1479424230388653631,0.99,0.3,9.42
1479424230398742169,1.04,0.41,9.71
1479424230408784180,0.94,0.39,10.79
1479424230418683979,0.73,0.31,10.79
1479424230428890742,0.58,0.28,10.4
1479424230438787622,0.57,0.3,10.69
1479424230449402596,0.62,0.3,10.89
1479424230458907847,0.72,0.28,10.69
1479424230468776089,0.84,0.23,10.1
1479424230479056919,0.84,0.21,10.5
1479424230489120798,0.64,0.22,9.91
1479424230499177112,0.41,0.22,10.2
1479424230509024632,0.38,0.21,10.3
1479424230519111933,0.53,0.23,10.01
1479424230528885423,0.66,0.3,9.81
1479424230539248921,0.6,0.34,10.89
1479424230549716866,0.39,0.28,10.69
1479424230559232315,0.28,0.2,10.01
1479424230569005629,0.33,0.15,9.81
1479424230579231554,0.46,0.15,10.2
1479424230589075621,0.57,0.16,10.59
1479424230599330305,0.55,0.17,10.69
1479424230609276136,0.45,0.2,10.5
1479424230619272945,0.37,0.26,9.61
1479424230629208465,0.25,0.31,9.12
1479424230639232306,0.05,0.3,9.22
1479424230649910428,-0.05,0.24,9.81
1479424230659366928,0.01,0.16,10.3
1479424230669237925,0.08,0.12,10.69
1479424230679308753,0.01,0.12,10.3
1479424230689301076,-0.1,0.13,9.91
1479424230699487562,-0.05,0.13,9.91
1479424230709502556,0.16,0.13,10.1
1479424230719615724,0.31,0.12,10.2
1479424230729458574,0.25,0.07,10.4
1479424230739456244,0.07,0.04,10.5
1479424230750463991,0.02,0.06,9.91
1479424230759532428,0.13,0.11,9.81
1479424230769491484,0.22,0.16,9.71
1479424230779819890,0.19,0.16,9.81
1479424230789674130,0.13,0.09,10.1
1479424230800527944,0.08,0.0,10.4
1479424230809631707,0.06,-0.06,9.91
1479424230820007279,0.05,-0.09,9.91
1479424230829681711,0.08,-0.1,10.2
1479424230839737296,0.15,-0.09,9.81
1479424230850728503,0.24,-0.05,9.52
1479424230859700148,0.32,-0.01,10.1
1479424230869782020,0.29,0.0,10.01
1479424230879743747,0.2,0.0,9.71
1479424230889736061,0.17,-0.03,9.81
1479424230900217971,0.19,-0.06,10.1
1479424230909889334,0.21,-0.09,10.1
1479424230920014813,0.23,-0.12,10.3
1479424230929842896,0.25,-0.12,10.01
1479424230939993910,0.31,-0.1,9.81
1479424230950887942,0.4,-0.09,9.52
1479424230959925516,0.42,-0.07,9.81
1479424230969957962,0.44,-0.05,9.52
1479424230980017650,0.49,-0.01,9.81
1479424230990323909,0.53,0.0,10.1
1479424231000307655,0.52,0.0,10.2
1479424231010035279,0.5,0.0,9.42
1479424231020093205,0.43,-0.04,9.22
1479424231030115626,0.31,-0.09,9.71
1479424231040184698,0.24,-0.16,10.1
1479424231051007679,0.24,-0.22,9.81
1479424231060230404,0.29,-0.23,9.91
1479424231070195603,0.39,-0.2,10.2
1479424231080431200,0.47,-0.17,10.1
1479424231090276180,0.48,-0.15,9.91
1479424231101034980,0.44,-0.17,9.81
1479424231110319084,0.43,-0.2,10.1
1479424231120409155,0.43,-0.23,10.2
1479424231130615442,0.41,-0.25,10.01
1479424231140411287,0.35,-0.2,9.32
1479424231151208657,0.27,-0.12,9.22
1479424231160388238,0.23,-0.09,9.42
1479424231170510697,0.3,-0.1,9.61
1479424231180614819,0.41,-0.11,10.1
1479424231190649245,0.47,-0.09,10.2
1479424231201106325,0.48,-0.09,10.2
1479424231210615220,0.49,-0.12,9.61
1479424231220552197,0.43,-0.15,9.91
1479424231230688043,0.31,-0.16,9.71
1479424231240675912,0.25,-0.16,9.81
1479424231251383892,0.3,-0.17,10.1
1479424231260687845,0.37,-0.18,10.1
1479424231270931324,0.37,-0.18,9.91
1479424231280725038,0.31,-0.11,10.1
1479424231290934998,0.27,-0.05,9.91
1479424231300869386,0.27,-0.04,10.1
1479424231310814450,0.26,-0.1,10.2
1479424231320846284,0.23,-0.17,9.61
1479424231330941644,0.2,-0.2,9.42
1479424231340959125,0.15,-0.17,9.22
1479424231351636124,0.13,-0.15,9.52
1479424231360913995,0.19,-0.15,10.01
1479424231371158823,0.31,-0.11,10.1
1479424231380993663,0.39,-0.06,10.3
1479424231390992252,0.38,-0.03,10.01
1479424231401161631,0.29,-0.07,9.71
1479424231411095822,0.13,-0.16,10.2
1479424231421111508,0.04,-0.24,9.81
1479424231431112370,0.1,-0.28,9.22
1479424231441178524,0.18,-0.25,9.42
1479424231452058896,0.17,-0.18,9.42
1479424231461182371,0.17,-0.11,9.22
1479424231471217435,0.26,-0.06,9.32
1479424231481240102,0.3,-0.01,10.1
1479424231491283774,0.22,0.0,9.71
1479424231501244437,0.09,-0.02,9.81
1479424231511292627,0.0,-0.06,9.61
1479424231521337396,-0.03,-0.13,10.01
1479424231531368791,0.03,-0.19,10.1
1479424231541385776,0.07,-0.2,9.71
1479424231552324571,0.06,-0.17,9.91
1479424231561400692,0.09,-0.11,10.1
1479424231571638618,0.25,-0.03,9.91
1479424231581432862,0.42,0.05,9.42
1479424231591446070,0.39,0.11,9.32
1479424231601482682,0.14,0.08,9.02
1479424231611527425,-0.1,0.01,9.71
1479424231621616532,-0.18,-0.04,10.1
1479424231631514225,-0.14,-0.05,10.01
1479424231641627925,-0.08,-0.01,9.91
1479424231652484468,-0.01,0.03,9.52
1479424231661661550,0.07,0.04,10.01
1479424231671708989,0.17,0.03,9.71
1479424231681729913,0.24,0.04,10.2
1479424231691691536,0.25,0.05,10.4
1479424231701709832,0.21,0.02,10.01
1479424231711782493,0.09,-0.02,9.91
1479424231721782312,-0.04,-0.06,9.81
1479424231731873983,-0.09,-0.04,9.71
1479424231741859541,-0.08,0.01,9.71
1479424231752738532,-0.07,0.07,9.71
1479424231761898745,-0.07,0.09,9.91
1479424231771900875,-0.08,0.08,10.2
1479424231781974273,-0.08,0.05,10.2
1479424231791989843,-0.07,0.03,9.81
1479424231802053549,-0.07,0.06,10.3
1479424231811988666,-0.04,0.09,10.01
1479424231822055247,-0.02,0.09,9.32
1479424231832087069,-0.05,0.1,9.61
1479424231842059771,-0.11,0.11,10.1
1479424231852950584,-0.14,0.09,10.1
1479424231862178869,-0.13,0.06,10.5
1479424231872460903,-0.08,0.04,10.3
1479424231882179787,-0.06,0.04,10.01
1479424231892233568,-0.05,0.04,9.91
1479424231902222166,-0.1,0.04,10.2
1479424231912271389,-0.21,0.05,10.3
1479424231922240976,-0.26,0.06,10.1
1479424231932290289,-0.25,0.05,10.2
1479424231942407085,-0.2,0.03,9.81
1479424231953257134,-0.11,0.02,9.71
1479424231962370343,-0.03,0.06,10.01
1479424231973092788,-0.03,0.11,10.1
1479424231982409533,-0.12,0.14,9.81
1479424231992966316,-0.24,0.1,10.01
1479424232002415629,-0.34,0.06,9.81
1479424232012709542,-0.37,0.04,9.61
1479424232022632708,-0.32,0.04,9.71
1479424232032741200,-0.26,0.06,9.71
1479424232042617668,-0.22,0.09,9.91
1479424232053257258,-0.21,0.13,9.52
1479424232062743829,-0.18,0.2,9.61
1479424232073052056,-0.12,0.24,9.91
1479424232082807150,-0.11,0.23,9.91
1479424232092785064,-0.14,0.16,10.01
1479424232103740673,-0.18,0.11,9.71
1479424232112787653,-0.2,0.12,9.32
1479424232122784991,-0.24,0.16,9.12
1479424232132763645,-0.29,0.18,9.22
1479424232142809688,-0.3,0.21,9.32
1479424232153611391,-0.26,0.25,9.52
1479424232162823125,-0.2,0.3,9.61
1479424232172868929,-0.15,0.33,10.1
1479424232183707003,-0.14,0.32,9.61
1479424232193380761,-0.21,0.29,9.61
1479424232202958912,-0.31,0.25,10.1
1479424232212976242,-0.27,0.21,10.1
1479424232223779990,-0.17,0.18,10.3
1479424232233627863,-0.18,0.16,10.59
1479424232243826013,-0.24,0.17,10.89
1479424232253826007,-0.22,0.21,10.5
1479424232263857579,-0.15,0.28,10.4
1479424232273133599,-0.05,0.37,9.81
1479424232283880871,0.03,0.4,9.42
1479424232293136212,0.06,0.34,9.71
1479424232303846052,0.04,0.27,10.5
1479424232313626396,0.01,0.21,10.3
1479424232323844697,0.0,0.19,10.4
1479424232333628941,-0.01,0.2,10.1
1479424232343845438,0.0,0.21,10.01
1479424232354151248,0.04,0.2,9.71
1479424232363883084,0.08,0.2,10.4
1479424232373626752,0.05,0.21,10.4
1479424232383848197,0.0,0.18,10.59
1479424232393649255,-0.02,0.16,10.4
1479424232403868523,0.0,0.2,9.91
1479424232413627624,0.1,0.25,9.61
1479424232423880852,0.26,0.27,9.71
1479424232433687747,0.33,0.25,10.1
1479424232443874353,0.23,0.23,10.5
1479424232454321027,0.07,0.21,10.59
1479424232464117212,-0.02,0.23,10.59
1479424232473803398,-0.04,0.32,10.3
1479424232483860104,0.0,0.39,9.91
1479424232493866044,0.04,0.4,9.81
1479424232503865677,0.06,0.37,9.81
1479424232513922621,0.12,0.35,9.61
1479424232523890474,0.15,0.35,9.61
1479424232533884491,0.1,0.38,9.91
1479424232543908564,0.0,0.42,10.1
1479424232554531063,-0.07,0.45,10.2
1479424232563865391,-0.04,0.46,10.1
1479424232574033689,0.03,0.42,9.42
1479424232584144141,0.08,0.34,9.42
1479424232594132298,0.03,0.26,10.59
1479424232604091548,-0.02,0.23,10.5
1479424232614096543,0.04,0.28,9.91
1479424232624092276,0.16,0.36,9.61
1479424232634167393,0.21,0.41,9.42
1479424232644133520,0.17,0.41,9.52
1479424232654990015,0.09,0.39,9.71
1479424232665044189,0.02,0.38,10.3
1479424232674240939,-0.02,0.36,10.5
1479424232684360040,-0.07,0.32,10.4
1479424232694262586,-0.11,0.32,9.81
1479424232704390623,-0.09,0.36,9.42
1479424232714278805,0.01,0.41,9.22
1479424232724320839,0.17,0.42,8.93
1479424232735007920,0.32,0.41,9.42
1479424232744842907,0.36,0.4,10.2
1479424232755268708,0.3,0.44,10.1
1479424232764337430,0.23,0.52,9.81
1479424232774385085,0.14,0.58,9.52
1479424232784827986,0.01,0.54,9.02
1479424232795097449,-0.1,0.45,9.52
1479424232805310890,-0.12,0.36,9.61
1479424232814907203,-0.03,0.32,9.61
1479424232824825649,0.12,0.33,10.01
1479424232834918353,0.27,0.36,10.01
1479424232845053994,0.37,0.41,9.52
1479424232855967366,0.43,0.43,9.22
1479424232865098652,0.47,0.44,9.12
1479424232875338999,0.48,0.43,9.22
1479424232885055573,0.42,0.42,9.52
1479424232895332839,0.25,0.41,9.52
1479424232905137333,0.03,0.4,10.01
1479424232915321285,-0.02,0.41,9.91
1479424232925243683,0.06,0.45,9.42
1479424232935088638,0.23,0.45,9.32
1479424232945109386,0.43,0.4,8.83
1479424232956069168,0.55,0.36,9.22
1479424232965068240,0.5,0.36,9.61
1479424232975052690,0.35,0.41,9.91
1479424232985094535,0.19,0.49,9.42
1479424232995343536,0.11,0.56,9.32
1479424233005060339,0.12,0.6,9.42
1479424233015301016,0.14,0.61,8.93
1479424233025054751,0.13,0.59,8.24
1479424233035142973,0.08,0.52,8.93
1479424233045037714,0.07,0.4,10.01
1479424233056271872,0.15,0.34,10.3
1479424233065281737,0.27,0.39,10.3
1479424233075282023,0.34,0.47,10.3
1479424233085257243,0.27,0.51,10.4
1479424233095417597,0.09,0.5,10.69
1479424233105300097,-0.13,0.47,10.59
1479424233115328466,-0.27,0.47,10.4
1479424233125276611,-0.26,0.47,10.4
1479424233135389501,-0.1,0.43,10.01
1479424233145332383,0.13,0.39,9.52
1479424233156482376,0.31,0.38,9.91
1479424233165613810,0.38,0.39,10.79
1479424233175349298,0.36,0.42,10.99
1479424233185611471,0.31,0.47,10.59
1479424233195395945,0.19,0.5,10.3
1479424233205529264,0.02,0.47,10.01
1479424233215424196,-0.1,0.41,9.71
1479424233225630660,-0.13,0.32,10.2
1479424233236055643,-0.13,0.24,10.69
1479424233245673238,-0.11,0.23,10.99
1479424233256481753,0.0,0.29,10.79
1479424233265784757,0.2,0.37,10.79
1479424233276033609,0.42,0.41,10.2
1479424233285783890,0.52,0.42,9.81
1479424233296204778,0.36,0.42,9.81
1479424233306037015,0.06,0.41,10.2
1479424233315908130,-0.13,0.4,10.2
1479424233326015244,-0.22,0.36,10.1
1479424233336122851,-0.23,0.36,10.3
1479424233345976405,-0.13,0.4,10.1
1479424233356817334,0.03,0.47,9.61
1479424233366006688,0.19,0.52,10.01
1479424233376138241,0.25,0.52,9.61
1479424233385973230,0.15,0.49,9.42
1479424233396243427,-0.03,0.45,10.2
1479424233406076022,-0.18,0.43,10.3
1479424233416121154,-0.25,0.45,9.52
1479424233426473613,-0.24,0.45,9.02
1479424233436053525,-0.21,0.43,8.83
1479424233446697641,-0.15,0.43,9.42
1479424233456869698,-0.1,0.45,9.71
1479424233466007480,-0.08,0.46,10.1
1479424233476314819,-0.08,0.45,9.91
1479424233486280425,-0.07,0.42,9.61
1479424233496449665,-0.06,0.41,9.61
1479424233506315196,-0.06,0.42,9.52
1479424233516183005,-0.13,0.45,9.42
1479424233526284733,-0.23,0.43,9.42
1479424233536116931,-0.3,0.37,10.2
1479424233546491722,-0.28,0.34,10.2
1479424233556977584,-0.15,0.4,9.81
1479424233566337174,-0.07,0.48,9.71
1479424233576615065,-0.09,0.53,9.42
1479424233586538102,-0.12,0.51,9.71
1479424233596413606,-0.15,0.46,9.71
1479424233606360050,-0.14,0.48,9.71
1479424233616337822,-0.11,0.51,9.12
1479424233626492371,-0.12,0.49,9.02
1479424233636653462,-0.12,0.45,9.32
1479424233646518793,-0.05,0.43,9.71
1479424233657413884,0.0,0.48,10.1
1479424233666502468,-0.05,0.56,10.4
1479424233676508964,-0.18,0.57,10.2
1479424233686781984,-0.26,0.51,10.01
1479424233696535703,-0.31,0.44,9.61
1479424233706733246,-0.39,0.4,9.61
1479424233716783839,-0.46,0.37,9.91
1479424233726760056,-0.49,0.36,10.3
1479424233737080963,-0.46,0.4,9.61
1479424233746738437,-0.38,0.47,9.91
1479424233757618453,-0.28,0.54,10.01
1479424233766737693,-0.22,0.56,10.2
1479424233776739782,-0.25,0.53,10.01
1479424233786777457,-0.36,0.48,10.1
1479424233796855829,-0.45,0.45,10.5
1479424233806916358,-0.5,0.44,10.59
1479424233816993822,-0.47,0.45,10.4
1479424233826865852,-0.39,0.46,9.91
1479424233837243689,-0.32,0.49,9.32
1479424233846950896,-0.3,0.51,9.71
1479424233857867647,-0.3,0.5,10.4
1479424233867460851,-0.32,0.5,10.01
1479424233877302666,-0.33,0.5,9.81
1479424233886959179,-0.37,0.5,9.71
1479424233897271415,-0.42,0.49,9.52
1479424233907117080,-0.44,0.46,9.32
1479424233917506728,-0.41,0.41,9.52
1479424233927258913,-0.39,0.37,9.61
1479424233937468887,-0.37,0.33,9.71
1479424233947552259,-0.29,0.33,10.3
1479424233957977488,-0.17,0.38,10.3
1479424233967402734,-0.13,0.45,10.1
1479424233977540509,-0.23,0.52,9.12
1479424233987490266,-0.39,0.56,8.73
1479424233997631599,-0.51,0.55,8.63
1479424234007359657,-0.53,0.5,9.02
1479424234017473508,-0.46,0.46,9.32
1479424234027448787,-0.35,0.46,9.32
1479424234037392780,-0.26,0.51,9.22
1479424234047452875,-0.2,0.57,9.22
1479424234058405023,-0.18,0.63,8.83
1479424234067953055,-0.22,0.67,8.73
1479424234079162381,-0.33,0.64,9.02
1479424234087520940,-0.43,0.58,9.52
1479424234097462766,-0.44,0.55,9.12
1479424234107519905,-0.37,0.55,8.63
1479424234117643610,-0.32,0.54,8.93
1479424234127632134,-0.32,0.53,9.02
1479424234137792324,-0.3,0.51,8.83
1479424234147688542,-0.25,0.51,8.53
1479424234158619467,-0.25,0.52,10.01
1479424234167745376,-0.27,0.53,10.1
1479424234177958372,-0.31,0.53,10.1
1479424234187781025,-0.46,0.51,10.4
1479424234198155534,-0.6,0.51,10.3
1479424234207785092,-0.58,0.5,9.71
1479424234217813058,-0.49,0.49,10.2
1479424234228016460,-0.35,0.48,10.01
1479424234238181117,-0.22,0.46,10.01
1479424234247869646,-0.16,0.49,10.2
1479424234258641574,-0.17,0.56,10.2
1479424234268012291,-0.25,0.62,10.2
1479424234278290877,-0.3,0.63,9.52
1479424234288014760,-0.36,0.61,9.81
1479424234298183784,-0.41,0.59,9.91
1479424234308341843,-0.33,0.54,10.1
1479424234318220993,-0.27,0.46,10.5
1479424234328060024,-0.27,0.41,10.1
1479424234338269672,-0.25,0.41,10.4
1479424234348154906,-0.17,0.44,10.3
1479424234358903986,-0.05,0.48,10.2
1479424234368179108,0.05,0.51,10.4
1479424234378478849,0.01,0.5,10.2
1479424234388235811,-0.2,0.5,9.52
1479424234398462098,-0.41,0.54,8.93
1479424234408385031,-0.46,0.55,9.32
1479424234418338193,-0.34,0.5,9.91
1479424234428322966,-0.19,0.43,9.91
1479424234438438436,-0.09,0.44,9.81
1479424234448451222,-0.01,0.52,9.71
1479424234459321896,0.02,0.59,9.52
1479424234468463772,0.02,0.62,9.42
1479424234478475767,0.0,0.59,9.61
1479424234488471243,-0.09,0.57,9.42
1479424234498929962,-0.21,0.56,9.32
1479424234508512732,-0.23,0.54,9.61
1479424234518739764,-0.15,0.52,9.61
1479424234528529307,-0.07,0.53,9.52
1479424234538631769,-0.04,0.55,9.02
1479424234548694062,-0.06,0.56,9.42
1479424234559661943,-0.14,0.58,9.71
1479424234568644720,-0.21,0.6,10.01
1479424234578685424,-0.22,0.63,9.81
1479424234588744286,-0.18,0.65,9.42
1479424234598973215,-0.11,0.67,9.32
1479424234608751566,-0.01,0.65,9.52
1479424234618745077,0.04,0.62,9.61
1479424234628830331,0.04,0.58,9.32
1479424234638869389,-0.05,0.54,9.32
1479424234648823885,-0.13,0.54,9.12
1479424234659809477,-0.1,0.57,9.12
1479424234668866461,-0.02,0.57,9.32
1479424234678911556,0.03,0.54,9.42
1479424234688972762,-0.03,0.48,10.4
1479424234699015394,-0.26,0.43,11.09
1479424234708986571,-0.48,0.44,10.79
1479424234719015332,-0.59,0.47,10.69
1479424234729016369,-0.54,0.5,10.1
1479424234739367647,-0.28,0.52,9.22
1479424234749072007,0.1,0.52,8.93
1479424234760100523,0.41,0.49,10.5
1479424234769163835,0.41,0.46,10.79
1479424234779431624,0.17,0.46,10.01
1479424234789364335,-0.07,0.48,10.4
1479424234799687845,-0.18,0.54,10.5
1479424234809278139,-0.15,0.6,10.4
1479424234819469245,-0.06,0.64,10.1
1479424234829292905,-0.05,0.63,10.79
1479424234839524108,-0.14,0.58,10.79
1479424234849335512,-0.23,0.54,11.28
1479424234860221256,-0.16,0.5,10.99
1479424234869385055,0.01,0.49,10.89
1479424234879516125,0.3,0.48,10.89
1479424234889386909,0.58,0.43,11.58
1479424234899737596,0.63,0.37,11.87
1479424234909628757,0.42,0.4,11.77
1479424234919993725,0.05,0.5,10.99
1479424234929511311,-0.3,0.55,11.38
1479424234939938302,-0.34,0.55,12.07
1479424234949857022,-0.08,0.53,11.77
1479424234960471311,0.22,0.47,11.87
1479424234969632815,0.48,0.4,12.26
1479424234979905904,0.63,0.33,11.09
1479424234989918091,0.49,0.31,10.59
1479424235000144036,0.17,0.35,10.01
1479424235009685467,-0.08,0.42,10.69
1479424235019786888,-0.16,0.47,11.38
1479424235029798383,-0.08,0.48,10.69
1479424235039989680,-0.09,0.45,9.52
1479424235049817799,-0.28,0.46,9.32
1479424235060682404,-0.45,0.47,10.01
1479424235069867976,-0.37,0.43,10.3
1479424235079905387,-0.11,0.39,10.1
1479424235090240166,0.04,0.39,10.1
1479424235099914300,-0.01,0.43,9.61
1479424235110031477,-0.16,0.5,9.22
1479424235120269143,-0.21,0.58,8.53
1479424235129994483,-0.1,0.6,8.44
1479424235140298593,0.09,0.59,8.93
1479424235150060261,0.26,0.59,9.71
1479424235160806160,0.28,0.56,10.69
1479424235170071618,0.2,0.53,10.69
1479424235180077489,0.17,0.57,9.22
1479424235190502903,0.19,0.65,8.53
1479424235200418617,0.16,0.68,8.24
1479424235210183185,0.03,0.62,8.63
1479424235220334896,-0.09,0.51,8.93
1479424235230243021,-0.14,0.45,9.22
1479424235240752057,-0.05,0.49,8.63
1479424235250279716,0.16,0.6,8.93
1479424235261027854,0.37,0.67,9.42
1479424235270381626,0.43,0.67,9.91
1479424235280384218,0.32,0.65,9.42
1479424235290737147,0.15,0.59,9.71
1479424235300427757,0.0,0.47,10.4
1479424235310509669,-0.14,0.36,10.4
1479424235320625971,-0.2,0.36,10.1
1479424235330501493,-0.16,0.45,9.61
1479424235340746565,0.02,0.53,9.12
1479424235350651482,0.2,0.6,9.52
1479424235361285410,0.24,0.62,9.71
1479424235370628786,0.21,0.58,10.1
1479424235380910580,0.11,0.54,10.1
1479424235390873861,-0.1,0.56,10.4
1479424235400749843,-0.33,0.58,10.1
1479424235410702072,-0.38,0.56,10.4
1479424235420790260,-0.24,0.52,9.81
1479424235430695376,-0.1,0.44,10.4
1479424235440750034,0.0,0.36,10.69
1479424235451012177,0.05,0.35,10.4
1479424235461506123,0.02,0.42,10.1
1479424235470842455,-0.01,0.49,9.81
1479424235480965116,-0.08,0.54,9.42
1479424235491013606,-0.17,0.57,9.32
1479424235500947365,-0.21,0.56,10.1
1479424235510960256,-0.27,0.49,10.69
1479424235521025118,-0.32,0.42,10.89
1479424235531118769,-0.24,0.38,10.2
1479424235541016409,-0.08,0.33,10.3
1479424235551059542,0.07,0.3,10.79
1479424235561782075,0.31,0.33,10.4
1479424235571243307,0.48,0.33,10.69
1479424235581062367,0.43,0.35,10.2
1479424235591139387,0.24,0.44,8.83
1479424235601186451,0.11,0.52,8.93
1479424235611167132,0.17,0.55,9.61
1479424235621153174,0.27,0.54,9.91
1479424235631235735,0.32,0.48,9.91
1479424235641284577,0.32,0.41,10.01
1479424235651280932,0.22,0.4,9.91
1479424235661980168,0.12,0.43,9.22
1479424235671319522,0.19,0.46,9.81
1479424235681359558,0.37,0.43,10.2
1479424235691386760,0.45,0.41,9.81
1479424235701337208,0.37,0.41,10.1
1479424235711393716,0.19,0.37,10.1
1479424235721445656,-0.01,0.38,10.5
1479424235731424762,-0.08,0.46,9.32
1479424235741629131,0.03,0.48,8.83
1479424235751515613,0.15,0.45,9.42
1479424235762304982,0.12,0.37,10.2
1479424235771615435,-0.05,0.26,10.2
1479424235781626682,-0.22,0.26,9.81
1479424235791640609,-0.2,0.33,9.52
1479424235801640449,-0.08,0.4,9.32
1479424235811960190,0.05,0.42,10.1
1479424235821657654,0.15,0.4,9.42
1479424235831710133,0.12,0.39,9.52
1479424235841738230,0.01,0.38,9.42
1479424235851734870,-0.03,0.39,9.61
1479424235862458830,0.0,0.37,9.52
1479424235871887487,0.07,0.36,8.53
1479424235882138034,0.19,0.38,8.53
1479424235891945911,0.36,0.35,9.71
1479424235901846123,0.44,0.35,9.32
1479424235912016091,0.33,0.38,9.12
1479424235921908876,0.25,0.42,8.73
1479424235932306367,0.27,0.43,9.12
1479424235941960938,0.3,0.41,9.71
1479424235952379946,0.28,0.39,9.52
1479424235962788034,0.22,0.41,9.71
1479424235972324913,0.22,0.43,9.61
1479424235982406849,0.32,0.43,9.61
1479424235992334491,0.43,0.39,9.71
1479424236002232851,0.42,0.33,9.52
1479424236012362993,0.24,0.34,9.61
1479424236022140053,0.15,0.4,9.61
1479424236032484261,0.31,0.42,10.01
1479424236042197086,0.48,0.43,10.01
1479424236052338588,0.47,0.44,9.02
1479424236063741950,0.32,0.44,9.52
1479424236072377833,0.21,0.42,9.61
1479424236082282491,0.27,0.37,9.81
1479424236092356349,0.42,0.3,10.5
1479424236102383346,0.52,0.26,10.5
1479424236112408185,0.51,0.27,10.5
1479424236122413845,0.43,0.29,10.5
1479424236132404934,0.33,0.27,10.3
1479424236142405423,0.2,0.22,9.32
1479424236152468249,0.08,0.18,9.71
1479424236164026581,0.02,0.15,9.81
1479424236172633137,0.06,0.13,10.5
1479424236182535184,0.22,0.13,10.89
1479424236192613709,0.4,0.19,10.3
1479424236202614097,0.46,0.28,9.81
1479424236212629012,0.45,0.34,9.91
1479424236222665235,0.41,0.34,9.52
1479424236232688713,0.31,0.31,9.42
1479424236243922149,0.12,0.26,9.81
1479424236252759549,-0.06,0.21,10.69
1479424236264133491,-0.07,0.23,10.2
1479424236272786199,0.11,0.3,9.81
1479424236282787706,0.37,0.37,9.32
1479424236292789047,0.57,0.39,9.52
1479424236302820531,0.57,0.34,9.02
1479424236312979799,0.37,0.29,9.22
1479424236322927675,0.03,0.26,9.81
1479424236332905897,-0.15,0.24,10.1
1479424236342886509,-0.04,0.22,9.91
1479424236352982518,0.11,0.21,9.61
1479424236364458768,0.11,0.22,9.42
1479424236373028756,0.07,0.22,9.52
1479424236384117861,0.09,0.21,9.61
1479424236393341278,0.11,0.19,10.1
1479424236404110728,0.12,0.2,9.91
1479424236413088491,0.15,0.22,9.61
1479424236424154554,0.11,0.26,9.81
1479424236433131930,-0.05,0.26,9.52
1479424236444141837,-0.23,0.18,9.61
1479424236453512371,-0.28,0.11,9.52
1479424236464659635,-0.27,0.13,9.12
1479424236473445781,-0.18,0.15,9.42
1479424236484177549,0.03,0.13,10.5
1479424236493459513,0.21,0.14,10.5
1479424236504194521,0.26,0.18,10.59
1479424236513467065,0.19,0.2,10.4
1479424236524335038,0.03,0.2,10.3
1479424236533736577,-0.14,0.17,10.4
1479424236544150765,-0.27,0.09,10.4
1479424236553489242,-0.29,0.07,10.01
1479424236564869688,-0.19,0.13,10.3
1479424236573487263,0.01,0.17,10.3
1479424236584286715,0.25,0.16,10.59
1479424236593611559,0.4,0.14,10.2
1479424236603944052,0.41,0.16,10.1
1479424236613615030,0.35,0.21,9.91
1479424236624429753,0.3,0.18,10.3
1479424236633683945,0.29,0.09,10.5
1479424236643956190,0.21,0.0,10.99
1479424236653699758,0.08,-0.02,10.69
1479424236664933695,0.06,0.04,10.89
1479424236673734415,0.16,0.09,11.09
1479424236683952666,0.32,0.08,11.09
1479424236693783976,0.48,0.04,10.3
1479424236703993183,0.59,0.05,9.81
1479424236713809201,0.62,0.08,10.2
1479424236724194877,0.46,0.1,10.5
1479424236733889456,0.14,0.09,10.79
1479424236744884801,-0.08,0.08,10.1
1479424236753910828,-0.03,0.12,9.22
1479424236764883569,0.18,0.2,8.83
1479424236773973832,0.31,0.22,9.42
1479424236784157073,0.33,0.2,9.02
1479424236794014063,0.31,0.17,9.02
1479424236804178928,0.33,0.15,9.42
1479424236814140800,0.39,0.13,9.71
1479424236824156955,0.35,0.13,9.61
1479424236834095116,0.13,0.17,9.61
1479424236844979376,-0.09,0.22,8.83
1479424236854196674,-0.23,0.25,8.93
1479424236864921656,-0.29,0.21,9.71
1479424236874220685,-0.28,0.17,9.52
1479424236884887477,-0.18,0.16,9.71
1479424236894230541,-0.08,0.2,9.71
1479424236904460845,0.0,0.3,9.42
1479424236914306336,0.06,0.35,9.02
1479424236924527013,0.03,0.36,8.73
1479424236934364474,-0.08,0.36,9.02
1479424236945113372,-0.18,0.34,9.32
1479424236954953315,-0.24,0.31,9.42
1479424236965673512,-0.27,0.34,9.32
1479424236974902871,-0.27,0.4,9.02
1479424236985196587,-0.22,0.41,9.81
1479424236995274252,-0.07,0.38,10.3
1479424237005410412,0.09,0.34,10.2
1479424237015026701,0.1,0.3,10.59
1479424237024656844,-0.01,0.3,10.2
1479424237035072070,-0.17,0.34,9.52
1479424237045193275,-0.31,0.37,8.44
1479424237055110241,-0.35,0.34,8.83
1479424237065674414,-0.32,0.27,10.01
1479424237075290858,-0.22,0.22,11.18
1479424237085428271,-0.1,0.26,10.89
1479424237095338015,-0.05,0.36,10.4
1479424237105425327,-0.05,0.42,10.01
1479424237115071935,0.0,0.41,9.81
1479424237125626236,0.06,0.35,10.59
1479424237135116897,-0.05,0.25,10.3
1479424237145356886,-0.29,0.16,9.42
1479424237155392378,-0.41,0.12,10.01
1479424237165882530,-0.34,0.15,10.69
1479424237175105819,-0.17,0.23,10.2
1479424237185491544,0.04,0.33,9.71
1479424237195366292,0.17,0.4,10.1
1479424237205429237,0.04,0.41,10.59
1479424237215098047,-0.23,0.37,10.4
1479424237225459242,-0.44,0.35,9.32
1479424237235335568,-0.55,0.37,9.22
1479424237245654207,-0.58,0.35,9.02
1479424237255296366,-0.42,0.28,9.32
1479424237265881600,-0.14,0.21,9.52
1479424237275343797,0.08,0.19,9.61
1479424237288713315,0.16,0.27,9.32
1479424237295334731,0.16,0.39,9.42
1479424237305687002,0.1,0.48,9.22
1479424237315833482,0.0,0.5,9.71
1479424237325612536,-0.11,0.45,9.71
1479424237335566239,-0.28,0.41,9.81
1479424237345616460,-0.44,0.36,9.81
1479424237355410182,-0.42,0.29,9.71
1479424237366348314,-0.22,0.27,9.02
1479424237375686328,0.01,0.31,9.61
1479424237386276183,0.11,0.39,9.91
1479424237395523501,0.14,0.49,9.42
1479424237405805005,0.12,0.57,9.32
1479424237415618834,0.01,0.67,8.83
1479424237426074821,-0.09,0.73,8.93
1479424237437914503,-0.21,0.68,9.91
1479424237446121209,-0.33,0.57,10.89
1479424237456169833,-0.4,0.48,10.89
1479424237466618866,-0.29,0.43,10.69
1479424237475822144,-0.06,0.44,10.4
1479424237485951659,0.16,0.47,9.71
1479424237496088829,0.33,0.43,9.91
1479424237506097061,0.38,0.4,10.69
1479424237515792636,0.32,0.41,10.99
1479424237526030007,0.15,0.42,11.09
1479424237535802315,-0.03,0.46,11.09
1479424237546110156,-0.19,0.49,9.81
1479424237556309980,-0.24,0.49,9.71
1479424237566806232,-0.17,0.42,10.69
1479424237576135727,-0.03,0.31,11.28
1479424237586115940,0.03,0.21,11.87
1479424237596265672,0.03,0.23,11.38
1479424237606178362,0.08,0.34,10.89
1479424237616234857,0.14,0.49,10.5
1479424237626164211,0.16,0.59,9.81
1479424237636356843,0.12,0.6,9.81
1479424237646230944,0.08,0.55,10.5
1479424237656386228,0.07,0.49,10.69
1479424237666840192,0.15,0.44,10.79
1479424237676617005,0.2,0.45,10.01
1479424237686335671,0.16,0.54,9.22
1479424237696300683,0.08,0.58,9.71
1479424237706396849,0.04,0.53,10.5
1479424237716515994,0.04,0.48,10.79
1479424237726627799,-0.03,0.47,10.2
1479424237736507271,-0.14,0.52,10.2
1479424237746393029,-0.15,0.57,10.89
1479424237756532627,-0.1,0.55,11.09
1479424237767151787,-0.1,0.52,10.2
1479424237776627734,-0.19,0.55,9.52
1479424237786445623,-0.23,0.61,9.61
1479424237796632402,-0.13,0.64,10.79
1479424237806657492,0.09,0.62,10.69
1479424237817134787,0.35,0.6,9.52
1479424237826628605,0.47,0.61,9.42
1479424237836960937,0.41,0.61,9.42
1479424237846612187,0.25,0.59,9.42
1479424237856695716,0.14,0.55,9.71
1479424237867388297,0.1,0.55,10.01
1479424237876785620,0.03,0.57,10.3
1479424237886785940,-0.01,0.59,10.3
1479424237896863629,0.07,0.53,9.91
1479424237906900737,0.16,0.45,9.71
1479424237916995300,0.1,0.44,9.52
1479424237927019445,-0.03,0.48,9.32
1479424237937033228,-0.07,0.53,9.42
1479424237946804023,0.02,0.52,9.91
1479424237957320070,0.14,0.5,9.42
1479424237967629272,0.17,0.49,9.52
1479424237977323024,0.06,0.53,9.32
1479424237986882528,-0.12,0.58,9.52
1479424237997046847,-0.23,0.6,9.42
1479424238007255087,-0.15,0.6,9.81
1479424238017160294,0.05,0.59,10.1
1479424238026973360,0.22,0.61,9.42
1479424238037318125,0.22,0.65,9.42
1479424238047094184,0.11,0.66,9.42
1479424238057490091,0.01,0.63,9.22
1479424238067857173,-0.01,0.58,9.22
1479424238077640812,0.02,0.57,9.32
1479424238087160510,0.1,0.58,9.32
1479424238097149104,0.11,0.58,9.32
1479424238107158261,0.06,0.6,9.81
1479424238117732696,0.02,0.63,9.91
1479424238127403813,0.05,0.66,9.52
1479424238137367351,0.16,0.65,9.52
1479424238147286587,0.28,0.61,9.42
1479424238157299076,0.34,0.56,10.2
1479424238168087681,0.33,0.51,10.2
1479424238177655961,0.31,0.49,10.01
1479424238187389030,0.31,0.5,10.2
1479424238197431314,0.31,0.54,9.71
1479424238207408134,0.37,0.58,9.22
1479424238217509654,0.46,0.59,9.42
1479424238227427054,0.51,0.59,9.61
1479424238237552785,0.51,0.58,9.71
1479424238247667937,0.47,0.55,9.61
1479424238257772477,0.41,0.52,10.1
1479424238268304782,0.36,0.52,9.91
1479424238278088491,0.33,0.55,9.71
1479424238287703249,0.28,0.57,9.91
1479424238297646048,0.21,0.57,10.01
1479424238307679571,0.18,0.55,9.71
1479424238317911982,0.23,0.55,9.42
1479424238327730292,0.32,0.57,9.32
1479424238337934862,0.37,0.58,9.42
1479424238347742172,0.38,0.58,9.61
1479424238357949569,0.35,0.59,9.61
1479424238368540270,0.3,0.59,10.1
1479424238377929625,0.28,0.58,9.71
1479424238387901440,0.26,0.6,9.91
1479424238398134382,0.18,0.6,10.01
1479424238407932969,0.08,0.57,9.91
1479424238418238547,0.03,0.53,10.3
1479424238427971283,0.05,0.52,10.3
1479424238438070897,0.12,0.55,10.2
1479424238448038369,0.21,0.59,9.91
1479424238458334316,0.26,0.63,9.81
1479424238468737622,0.27,0.66,9.81
1479424238478460604,0.24,0.65,9.52
1479424238488139821,0.14,0.62,9.61
1479424238498242987,0.03,0.59,9.81
1479424238508205604,0.02,0.54,10.1
1479424238518186381,0.13,0.51,10.01
1479424238528178922,0.25,0.51,10.1
1479424238538528005,0.27,0.55,10.3
1479424238548236038,0.24,0.57,10.5
1479424238558492126,0.21,0.57,10.2
1479424238569034453,0.16,0.57,10.2
1479424238578516141,0.1,0.56,10.2
1479424238588302994,0.11,0.54,10.1
1479424238598425866,0.15,0.51,10.5
1479424238608413164,0.17,0.51,10.4
1479424238618429413,0.18,0.54,10.01
1479424238628474367,0.19,0.59,10.2
1479424238638517267,0.26,0.64,9.61
1479424238648488187,0.34,0.65,9.71
1479424238658614183,0.3,0.63,9.71
1479424238669216179,0.15,0.6,9.91
1479424238678616530,0.01,0.56,9.91
1479424238688813087,-0.03,0.54,9.91
1479424238698965473,-0.02,0.52,9.81
1479424238708846573,0.02,0.52,9.81
1479424238718704076,0.08,0.54,10.01
1479424238728687219,0.12,0.57,9.81
1479424238738688035,0.16,0.57,9.81
1479424238749058242,0.16,0.51,10.01
1479424238758865573,0.08,0.47,9.71
1479424238769615545,-0.05,0.47,9.71
1479424238778818240,-0.13,0.49,9.81
1479424238789054085,-0.11,0.51,10.01
1479424238798906481,-0.09,0.52,10.4
1479424238808862974,-0.1,0.55,10.3
1479424238818970064,-0.06,0.59,9.61
1479424238828929168,0.01,0.63,9.61
1479424238838971202,0.05,0.67,9.32
1479424238848980083,0.06,0.67,8.63
1479424238859010862,0.02,0.6,9.52
1479424238869693749,-0.04,0.54,10.1
1479424238879062408,-0.06,0.52,9.91
1479424238889386302,-0.01,0.52,9.61
1479424238899246215,0.02,0.55,9.71
1479424238909138388,0.0,0.57,9.32
1479424238919183754,-0.08,0.55,9.71
1479424238929185600,-0.2,0.5,10.59
1479424238939175100,-0.3,0.48,11.09
1479424238949207175,-0.24,0.52,10.4
1479424238959697005,-0.08,0.57,10.01
1479424238969968000,0.09,0.6,9.12
1479424238979284897,0.19,0.56,9.02
1479424238989334991,0.2,0.51,9.42
1479424238999755522,0.2,0.49,10.2
1479424239009457328,0.19,0.51,10.59
1479424239019801083,0.18,0.56,10.2
1479424239029364978,0.2,0.61,9.81
1479424239039802877,0.19,0.65,9.02
1479424239049461069,0.1,0.64,9.22
1479424239059822459,0.0,0.56,9.81
1479424239070184030,-0.04,0.47,10.2
1479424239079969094,-0.06,0.39,10.69
1479424239089619057,0.0,0.37,10.69
1479424239099973057,0.16,0.42,10.1
1479424239109612903,0.29,0.51,9.42
1479424239119970620,0.28,0.55,9.81
1479424239129657633,0.16,0.53,9.91
1479424239139999207,0.06,0.54,9.42
1479424239149655965,0.06,0.58,9.42
1479424239160017025,0.14,0.57,10.5
1479424239170533461,0.2,0.55,10.2
1479424239180026005,0.24,0.57,10.69
1479424239189798938,0.25,0.6,10.01
1479424239200134757,0.23,0.62,9.81
1479424239209834013,0.2,0.66,8.73
1479424239220230757,0.11,0.63,9.42
1479424239229855685,-0.05,0.54,10.4
1479424239240141472,-0.2,0.49,11.18
1479424239250259404,-0.25,0.53,10.99
1479424239260178144,-0.21,0.62,10.69
1479424239270686094,-0.1,0.69,10.59
1479424239280195076,0.02,0.7,9.42
1479424239290012495,0.1,0.65,9.61
1479424239300258744,0.08,0.52,10.4
1479424239310074324,-0.01,0.41,10.3
1479424239320490211,-0.11,0.38,10.01
1479424239330136683,-0.16,0.42,10.1
1479424239340375750,-0.07,0.53,10.01
1479424239350131577,0.14,0.63,10.01
1479424239360408527,0.34,0.67,10.2
1479424239370923346,0.43,0.66,10.59
1479424239380400390,0.34,0.59,10.01
1479424239390326574,0.07,0.49,9.32
1479424239400550874,-0.12,0.41,9.52
1479424239410344638,-0.13,0.34,10.4
1479424239420633898,-0.06,0.35,10.4
1479424239430358495,0.0,0.46,10.2
1479424239440530159,0.01,0.54,10.3
1479424239450427101,0.04,0.62,10.1
1479424239460726292,0.11,0.7,9.32
1479424239471234260,0.15,0.73,8.53
1479424239480725137,0.07,0.71,9.81
1479424239490562965,-0.02,0.64,9.91
1479424239500765229,-0.01,0.56,10.1
1479424239510611293,0.05,0.53,10.1
1479424239520829056,0.09,0.56,9.22
1479424239530617406,0.16,0.65,8.14
1479424239540802190,0.21,0.7,8.83
1479424239550677136,0.16,0.66,9.12
1479424239560832705,0.03,0.62,10.01
1479424239571462515,-0.15,0.64,10.3
1479424239581085410,-0.28,0.62,10.69
1479424239590734294,-0.33,0.57,10.99
1479424239601007896,-0.32,0.56,9.91
1479424239610847994,-0.2,0.56,9.52
1479424239620922982,-0.02,0.54,8.93
1479424239631007736,0.14,0.52,8.83
1479424239640947805,0.28,0.51,9.61
1479424239651167247,0.47,0.52,9.81
1479424239661069417,0.57,0.59,10.3
1479424239671710310,0.54,0.7,9.71
1479424239681694822,0.49,0.74,8.83
1479424239691258136,0.41,0.71,8.73
1479424239701190275,0.22,0.64,9.22
1479424239711053894,0.02,0.55,9.61
1479424239721241253,-0.09,0.49,10.01
1479424239731510308,-0.1,0.43,10.79
1479424239741188464,0.0,0.46,10.59
1479424239751412431,0.17,0.56,9.61
1479424239761233994,0.4,0.63,9.22
1479424239771960353,0.58,0.64,10.01
1479424239781517074,0.56,0.61,9.52
1479424239791202739,0.34,0.59,10.01
1479424239801368807,0.07,0.62,9.71
1479424239811312162,-0.11,0.69,9.42
1479424239821873820,-0.14,0.7,10.3
1479424239831539558,-0.03,0.68,10.2
1479424239841324395,0.11,0.7,9.91
1479424239852084499,0.2,0.72,10.1
1479424239861409513,0.26,0.7,10.3
1479424239872141552,0.31,0.67,9.81
1479424239881760974,0.24,0.63,9.02
1479424239891907489,0.13,0.62,9.32
1479424239901497616,0.07,0.59,10.3
1479424239911878605,0.06,0.55,10.89
1479424239921785706,0.11,0.56,10.4
1479424239932234219,0.2,0.62,10.01
1479424239941623734,0.27,0.7,8.83
1479424239951864630,0.31,0.71,8.93
1479424239961958378,0.33,0.61,10.1
1479424239972432957,0.32,0.49,10.3
1479424239981996469,0.25,0.46,10.79
1479424239991879864,0.21,0.51,10.69
1479424240001742864,0.22,0.57,10.4
1479424240012083175,0.23,0.64,9.71
1479424240021964762,0.28,0.69,9.12
1479424240031850440,0.35,0.69,9.32
1479424240041854567,0.35,0.64,9.81
1479424240051903633,0.26,0.59,10.5
1479424240061854817,0.16,0.59,10.3
1479424240072701052,0.15,0.65,10.2
1479424240081969790,0.19,0.72,9.71
1479424240092048256,0.18,0.74,9.22
1479424240102012997,0.13,0.68,9.22
1479424240112026539,0.03,0.6,9.52
1479424240122050641,-0.08,0.56,10.4
1479424240132056776,-0.19,0.58,10.3
1479424240142092893,-0.23,0.64,10.1
1479424240152090054,-0.15,0.72,9.52
1479424240162158778,-0.01,0.76,9.61
1479424240172931109,0.12,0.73,9.52
1479424240182193271,0.12,0.65,9.81
1479424240192178507,-0.05,0.55,10.4
1479424240202308900,-0.27,0.49,10.89
1479424240212234256,-0.38,0.47,11.09
1479424240222281568,-0.32,0.53,10.79
1479424240232282044,-0.24,0.61,10.79
1479424240242296536,-0.2,0.69,9.71
1479424240252671404,-0.1,0.74,9.52
1479424240262363233,0.0,0.72,8.73
1479424240273128533,0.02,0.66,8.93
1479424240282407649,0.01,0.58,10.3
1479424240292488672,0.01,0.51,11.48
1479424240302516868,0.05,0.55,11.38
1479424240312524386,0.07,0.66,10.89
1479424240322805389,0.0,0.73,10.4
1479424240332512280,-0.1,0.71,10.2
1479424240342611077,-0.26,0.6,10.1
1479424240352631285,-0.32,0.47,9.71
1479424240362626401,-0.19,0.39,10.4
1479424240373389154,0.04,0.38,11.48
1479424240382709368,0.39,0.44,10.79
1479424240392744102,0.67,0.57,10.2
1479424240402716755,0.7,0.69,9.52
1479424240412709359,0.49,0.76,9.22
1479424240422756221,0.19,0.7,9.71
1479424240432800558,0.03,0.53,10.59
1479424240442818697,-0.01,0.41,10.1
1479424240452907162,-0.08,0.38,9.81
1479424240463931044,-0.04,0.4,10.01
1479424240473618982,0.16,0.42,10.4
1479424240482907653,0.38,0.45,10.2
1479424240492932125,0.46,0.5,9.61
1479424240502945109,0.43,0.56,9.52
1479424240513093215,0.3,0.57,9.22
1479424240523018060,0.07,0.56,8.93
1479424240533057020,-0.19,0.52,9.42
1479424240543017165,-0.42,0.48,10.01
1479424240553047778,-0.45,0.48,10.3
1479424240563908106,-0.3,0.5,10.1
1479424240573864905,-0.06,0.54,9.52
1479424240583931292,0.16,0.58,9.42
1479424240593200999,0.28,0.6,8.83
1479424240603957663,0.22,0.58,8.73
1479424240613178913,0.03,0.54,9.12
1479424240624015258,-0.18,0.5,10.2
1479424240633433885,-0.34,0.48,10.3
1479424240644007529,-0.41,0.52,9.71
1479424240653631107,-0.44,0.61,9.32
1479424240664006839,-0.36,0.67,8.83
1479424240674334899,-0.17,0.61,9.42
1479424240684050372,-0.06,0.5,10.01
1479424240693532481,-0.12,0.44,10.2
1479424240704015236,-0.17,0.43,10.2
1479424240713614073,-0.08,0.44,10.2
1479424240724052434,0.0,0.49,9.71
1479424240733631106,0.05,0.52,9.22
1479424240744013722,0.0,0.47,9.52
1479424240753615495,-0.11,0.42,9.81
1479424240764025049,-0.19,0.43,10.01
1479424240774348640,-0.17,0.46,9.81
1479424240784029673,-0.06,0.5,9.61
1479424240793696225,0.07,0.53,9.71
1479424240804026789,0.12,0.52,9.52
1479424240813776066,0.12,0.46,10.2
1479424240824218907,0.11,0.38,10.1
1479424240833733130,0.06,0.33,10.1
1479424240844049837,0.0,0.31,10.2
1479424240853857811,-0.03,0.34,9.91
1479424240864033935,-0.03,0.42,9.61
1479424240874614755,-0.01,0.5,9.71
1479424240884033346,0.03,0.52,10.2
1479424240893980519,0.12,0.49,10.2
1479424240904050423,0.16,0.41,10.1
1479424240913931470,0.14,0.35,9.81
1479424240924264958,0.06,0.35,9.52
1479424240934055734,-0.01,0.36,9.52
1479424240944247349,-0.06,0.37,9.52
1479424240954025508,-0.13,0.39,9.71
1479424240964488133,-0.17,0.39,10.69
1479424240974804281,-0.12,0.42,10.69
1479424240984231917,-0.05,0.46,10.3
1479424240994138654,-0.04,0.47,9.61
1479424241004261937,-0.14,0.44,9.52
1479424241014961462,-0.22,0.38,9.81
1479424241024506231,-0.19,0.33,10.3
1479424241034230139,-0.04,0.33,10.01
1479424241044487162,0.07,0.33,10.89
1479424241054318768,0.11,0.33,10.4
1479424241064506238,0.12,0.34,10.1
1479424241075285070,0.09,0.36,9.52
1479424241085094165,0.0,0.41,9.71
1479424241095106777,-0.08,0.47,9.91
1479424241104502565,-0.1,0.46,10.2
1479424241114389096,-0.1,0.4,10.5
1479424241124490251,-0.11,0.35,10.1
1479424241134958769,-0.14,0.32,9.71
1479424241145266967,-0.22,0.33,10.4
1479424241155061772,-0.26,0.33,10.01
1479424241165229638,-0.12,0.32,9.52
1479424241175776662,0.11,0.34,9.71
1479424241184969565,0.3,0.36,10.2
1479424241195320437,0.33,0.37,10.01
1479424241205449777,0.19,0.38,9.81
1479424241215071511,0.03,0.39,9.32
1479424241224995753,-0.04,0.36,9.42
1479424241235097609,-0.05,0.31,9.61
1479424241245479397,-0.01,0.27,9.61
1479424241255127801,0.02,0.27,9.61
1479424241265241028,0.02,0.29,9.81
1479424241275838748,0.03,0.34,9.61
1479424241285208344,0.09,0.39,9.71
1479424241295382302,0.18,0.41,9.61
1479424241305250834,0.25,0.4,9.61
1479424241315319542,0.26,0.37,9.22
1479424241325256427,0.23,0.33,9.61
1479424241335335369,0.19,0.29,9.81
1479424241345455727,0.12,0.29,9.81
1479424241355335663,0.03,0.32,9.42
1479424241365240059,-0.03,0.37,9.32
1479424241375856996,-0.01,0.41,9.22
1479424241385256024,0.03,0.39,9.42
1479424241395334545,0.07,0.35,9.81
1479424241405243574,0.11,0.3,9.52
1479424241415382419,0.14,0.31,9.12
1479424241425275925,0.15,0.34,8.93
1479424241435345863,0.12,0.32,9.22
1479424241445444969,0.1,0.29,9.71
1479424241455373676,0.16,0.26,9.81
1479424241465444492,0.21,0.27,9.81
1479424241476323796,0.16,0.29,10.4
1479424241485452845,0.05,0.33,10.1
1479424241495635029,-0.09,0.35,9.71
1479424241505494315,-0.25,0.34,9.71
1479424241515809216,-0.3,0.32,9.61
1479424241525407519,-0.22,0.26,9.71
1479424241535544061,-0.14,0.24,10.2
1479424241545460394,-0.1,0.25,9.61
1479424241555480209,-0.01,0.3,9.32
1479424241565725412,0.04,0.34,8.63
1479424241576966768,0.05,0.36,8.24
1479424241585879855,-0.03,0.34,9.22
1479424241595636158,-0.15,0.25,10.89
1479424241605887858,-0.19,0.23,10.89
1479424241615681780,-0.2,0.26,10.69
1479424241625905883,-0.25,0.29,10.3
1479424241635814026,-0.33,0.27,9.71
1479424241645910988,-0.47,0.21,10.1
1479424241656302800,-0.54,0.18,10.69
1479424241665908189,-0.41,0.18,10.01
1479424241676927485,-0.17,0.19,10.1
1479424241685908312,0.0,0.24,10.5
1479424241695852342,0.03,0.3,10.4
1479424241706155320,0.0,0.36,9.91
1479424241716336325,-0.08,0.39,9.52
1479424241726154338,-0.16,0.38,8.93
1479424241736612362,-0.17,0.3,9.52
1479424241746166202,-0.21,0.16,11.48
1479424241756286353,-0.25,0.06,11.28
1479424241766388906,-0.17,0.1,10.5
1479424241777297075,-0.1,0.25,10.59
1479424241786134282,-0.07,0.39,10.01
1479424241796088497,0.01,0.38,9.32
1479424241806238960,0.17,0.25,9.71
1479424241816820416,0.29,0.12,10.3
1479424241826393514,0.27,0.08,10.79
1479424241836801193,0.17,0.12,11.38
1479424241846506092,0.11,0.18,11.38
1479424241856382322,0.15,0.27,10.69
1479424241866306053,0.21,0.36,9.61
1479424241877614428,0.18,0.41,9.61
1479424241886408265,0.14,0.35,10.1
1479424241896512124,0.15,0.2,10.5
1479424241906488265,0.12,0.11,10.2
1479424241916617623,0.1,0.16,9.81
1479424241926391094,0.23,0.29,9.02
1479424241936806952,0.47,0.39,9.32
1479424241946428061,0.67,0.39,9.22
1479424241956448677,0.69,0.32,9.61
1479424241966969627,0.43,0.24,9.61
1479424241977278020,0.04,0.21,9.91
1479424241986697652,-0.3,0.22,9.61
1479424241996777031,-0.4,0.23,10.2
1479424242006731691,-0.19,0.21,9.91
1479424242017068638,0.1,0.21,9.61
1479424242026980870,0.31,0.24,9.52
1479424242036854622,0.39,0.27,9.22
1479424242046692705,0.31,0.29,8.83
1479424242056969445,0.15,0.27,9.81
1479424242066801971,0.0,0.23,10.2
1479424242077517161,-0.13,0.27,10.01
1479424242086887290,-0.24,0.37,9.42
1479424242097015549,-0.32,0.45,9.12
1479424242106969800,-0.35,0.47,8.63
1479424242117050678,-0.29,0.43,8.93
1479424242127010797,-0.18,0.36,9.81
1479424242137381314,-0.01,0.28,10.5
1479424242147210462,0.19,0.27,10.2
1479424242157115462,0.33,0.33,10.01
1479424242167009899,0.34,0.4,9.61
1479424242177909612,0.22,0.44,9.22
1479424242187063929,0.05,0.45,9.42
1479424242197074946,-0.08,0.41,9.81
1479424242207384546,-0.13,0.36,10.59
1479424242217405835,-0.1,0.33,10.3
1479424242227096802,0.0,0.34,10.1
1479424242237389906,0.13,0.38,9.52
1479424242247172222,0.2,0.4,9.52
1479424242257613372,0.2,0.38,9.42
1479424242267230183,0.11,0.35,9.91
1479424242278013362,-0.02,0.3,9.91
1479424242287612870,-0.07,0.28,10.5
1479424242297333741,-0.07,0.34,10.5
1479424242307303174,-0.06,0.42,10.79
1479424242317333200,0.0,0.45,10.69
1479424242327652676,0.05,0.42,10.79
1479424242337616256,0.09,0.35,10.69
1479424242347412009,0.11,0.29,10.01
1479424242357471055,0.11,0.27,10.3
1479424242367655712,0.1,0.29,10.01
1479424242378260232,0.04,0.35,10.1
1479424242387534865,-0.01,0.42,10.01
1479424242397959041,-0.04,0.46,9.81
1479424242407615598,-0.01,0.5,9.61
1479424242417626240,0.0,0.54,9.71
1479424242427612843,-0.05,0.57,9.61
1479424242437740254,-0.12,0.52,10.69
1479424242447640177,-0.17,0.39,11.18
1479424242457720133,-0.17,0.3,10.59
1479424242467907984,-0.18,0.29,10.5
1479424242478660132,-0.19,0.34,9.71
1479424242487787714,-0.13,0.41,8.73
1479424242497819107,0.0,0.43,9.22
1479424242507801960,0.22,0.44,9.02
1479424242517958304,0.43,0.5,9.22
1479424242527854682,0.55,0.56,9.71
1479424242538174614,0.45,0.59,10.2
1479424242547888779,0.19,0.61,9.81
1479424242558170523,-0.07,0.61,8.93
1479424242567993039,-0.27,0.55,8.63
1479424242578824307,-0.33,0.45,9.32
1479424242588015411,-0.27,0.34,9.12
1479424242598402204,-0.19,0.32,9.71
1479424242608029050,-0.12,0.4,9.52
1479424242618388257,0.0,0.53,9.32
1479424242628130793,0.19,0.66,9.71
1479424242638281216,0.36,0.72,9.22
1479424242648197351,0.37,0.7,8.83
1479424242658263774,0.21,0.63,8.73
1479424242668154963,-0.02,0.54,9.52
1479424242679007791,-0.23,0.5,9.71
1479424242688237748,-0.38,0.51,10.01
1479424242698451952,-0.38,0.59,9.52
1479424242708299152,-0.14,0.66,8.73
1479424242718303017,0.12,0.71,8.73
1479424242728314788,0.4,0.69,8.93
1479424242738476369,0.53,0.58,9.81
1479424242748364257,0.33,0.53,10.2
1479424242758911413,0.06,0.55,10.4
1479424242768461984,-0.13,0.59,10.89
1479424242779210079,-0.26,0.64,10.69
1479424242788478610,-0.32,0.64,10.59
1479424242798508969,-0.31,0.6,10.2
1479424242808516211,-0.2,0.55,10.3
1479424242818634816,0.0,0.49,10.1
1479424242828616147,0.27,0.43,10.5
1479424242838652207,0.46,0.43,10.5
1479424242848614968,0.4,0.51,9.61
1479424242858696408,0.11,0.62,9.42
1479424242868658834,-0.1,0.71,9.22
1479424242879470866,-0.09,0.7,10.5
1479424242889010097,0.01,0.6,11.38
1479424242899282540,0.02,0.52,11.28
1479424242908783893,-0.05,0.5,10.79
1479424242918972586,-0.07,0.52,10.69
1479424242928787846,-0.01,0.51,10.1
1479424242938828645,0.05,0.46,10.1
1479424242948806564,0.13,0.43,10.2
1479424242958890229,0.23,0.44,10.69
1479424242969009510,0.24,0.49,11.09
1479424242979982928,0.14,0.56,10.59
1479424242988972734,-0.01,0.65,10.2
1479424242999211358,-0.2,0.71,9.71
1479424243009014303,-0.28,0.69,10.3
1479424243019108268,-0.18,0.63,9.81
1479424243029059013,-0.05,0.55,11.18
1479424243039107682,0.03,0.5,11.18
1479424243049141807,0.04,0.51,10.89
1479424243059138726,0.05,0.57,10.3
1479424243069149786,0.05,0.62,9.61
1479424243080276274,0.01,0.63,9.22
1479424243089196761,0.0,0.57,9.42
1479424243099513217,-0.1,0.51,10.1
1479424243109283827,-0.27,0.51,9.81
1479424243119491468,-0.39,0.54,9.71
1479424243129289759,-0.31,0.57,9.32
1479424243139308285,-0.04,0.58,9.52
1479424243149283147,0.08,0.55,9.52
1479424243159333050,-0.04,0.5,9.32
1479424243169340935,-0.24,0.46,9.12
1479424243180493300,-0.3,0.4,10.69
1479424243189446788,-0.26,0.34,11.67
1479424243199505606,-0.18,0.38,10.99
1479424243209444762,-0.1,0.49,9.81
1479424243219614966,-0.08,0.62,9.52
1479424243229505957,-0.1,0.7,8.83
1479424243239628026,-0.09,0.69,8.34
1479424243249635367,-0.08,0.62,9.22
1479424243260013243,-0.07,0.6,9.81
1479424243269615470,0.02,0.64,10.01
1479424243280677513,0.14,0.69,10.1
1479424243289708330,0.18,0.72,9.71
1479424243299946532,0.09,0.7,9.12
1479424243309698325,-0.03,0.64,9.02
1479424243320006339,-0.12,0.59,9.52
1479424243330107984,-0.13,0.53,10.1
1479424243340027075,-0.07,0.54,10.01
1479424243349798252,0.06,0.56,10.01
1479424243360055016,0.25,0.57,10.2
1479424243369842126,0.39,0.57,10.2
1479424243380848434,0.41,0.52,9.81
1479424243389933815,0.32,0.42,10.1
1479424243400071067,0.14,0.33,10.1
1479424243410019811,-0.05,0.35,9.61
1479424243420616700,-0.07,0.44,9.52
1479424243429966566,0.0,0.55,9.81
1479424243440077497,0.02,0.64,9.61
1479424243450077515,0.04,0.66,9.32
1479424243460188424,0.13,0.6,9.81
1479424243470800877,0.27,0.52,9.81
1479424243481367208,0.34,0.47,9.71
1479424243490372361,0.29,0.43,9.32
1479424243500350414,0.2,0.42,9.61
1479424243510364482,0.11,0.44,9.71
1479424243520341016,0.04,0.46,9.61
1479424243530357039,-0.05,0.49,9.61
1479424243540310633,-0.15,0.54,9.81
1479424243550323394,-0.13,0.59,10.01
1479424243560358743,0.03,0.59,9.91
1479424243570359532,0.28,0.58,9.71
1479424243581357801,0.41,0.57,9.22
1479424243590403590,0.3,0.56,8.73
1479424243600387012,0.03,0.55,8.83
1479424243610445967,-0.21,0.54,9.22
1479424243620787185,-0.32,0.53,9.52
1479424243630464312,-0.3,0.55,9.71
1479424243640514340,-0.18,0.56,9.61
1479424243650630880,-0.06,0.55,10.4
1479424243660629141,0.0,0.54,10.69
1479424243670617459,-0.04,0.54,10.3
1479424243681613509,-0.16,0.55,9.91
1479424243690685259,-0.26,0.54,8.93
1479424243700698250,-0.27,0.47,9.32
1479424243710687954,-0.2,0.36,10.01
1479424243720784935,-0.09,0.34,10.2
1479424243730711532,0.02,0.46,9.32
1479424243740786176,0.04,0.58,9.81
1479424243750783198,-0.02,0.65,9.61
1479424243760891394,-0.13,0.63,10.01
1479424243770849122,-0.24,0.58,9.61
1479424243781821041,-0.28,0.59,9.52
1479424243790866503,-0.12,0.56,10.01
1479424243800914346,0.03,0.42,10.59
1479424243810909314,-0.05,0.3,10.69
1479424243821051714,-0.25,0.29,10.4
1479424243831858377,-0.32,0.4,9.61
1479424243840983490,-0.17,0.56,9.52
1479424243851455896,0.15,0.63,10.1
1479424243861061812,0.49,0.56,10.01
1479424243871427699,0.55,0.49,9.81
1479424243882055558,0.23,0.52,9.42
1479424243891407577,-0.05,0.54,9.52
1479424243901425905,-0.16,0.49,10.2
1479424243911408115,-0.09,0.37,10.69
1479424243921201519,0.12,0.27,10.99
1479424243931694276,0.37,0.28,10.79
1479424243941283242,0.56,0.39,10.99
1479424243951468547,0.55,0.49,10.59
1479424243961287636,0.33,0.54,10.1
1479424243971692197,0.14,0.54,9.71
1479424243982308251,0.01,0.51,9.81
1479424243991471110,-0.06,0.44,10.4
1479424244001479170,-0.03,0.38,10.3
1479424244011426088,0.07,0.4,9.61
1479424244021803537,0.14,0.47,9.52
1479424244031475394,0.13,0.51,9.61
1479424244041489429,0.14,0.52,9.61
1479424244051529034,0.12,0.5,10.2
1479424244061512700,0.02,0.45,10.59
1479424244071741008,0.0,0.43,10.4
1479424244082367208,0.0,0.43,10.2
1479424244091625793,0.02,0.45,9.61
1479424244101693364,0.08,0.48,9.42
1479424244111692061,0.18,0.43,9.52
1479424244121657025,0.22,0.34,10.1
1479424244131910659,0.11,0.31,10.01
1479424244141735666,-0.08,0.33,9.42
1479424244151736883,-0.19,0.42,9.12
1479424244161793733,-0.15,0.5,8.83
1479424244171930203,-0.06,0.52,9.61
1479424244182629666,-0.03,0.51,9.91
1479424244191861103,-0.03,0.47,9.71
1479424244201887612,-0.04,0.4,9.32
1479424244211899799,0.0,0.36,8.53
1479424244222006403,0.07,0.36,9.52
1479424244232105823,0.09,0.39,10.2
1479424244241987618,0.04,0.46,9.81
1479424244252016395,-0.02,0.54,9.52
1479424244262105692,-0.08,0.54,9.91
1479424244272132163,-0.08,0.55,9.42
1479424244282783322,-0.09,0.56,8.93
1479424244292135346,-0.19,0.54,9.52
1479424244302133063,-0.37,0.51,10.4
1479424244312136218,-0.39,0.48,10.4
1479424244322255195,-0.15,0.46,10.59
1479424244332683853,0.12,0.49,10.3
1479424244342217140,0.17,0.56,9.22
1479424244352231348,0.02,0.6,9.61
1479424244362264100,-0.09,0.58,10.4
1479424244372411894,-0.08,0.53,11.09
1479424244383075812,-0.09,0.48,10.79
1479424244392362962,-0.16,0.49,10.4
1479424244402405420,-0.08,0.51,10.4
1479424244412318111,0.08,0.48,10.1
1479424244422614209,0.17,0.43,10.5
1479424244432629996,0.17,0.33,10.79
1479424244442556246,0.08,0.25,11.38
1479424244452471942,0.0,0.26,11.18
1479424244462786228,0.0,0.33,10.59
1479424244472625207,0.0,0.43,10.01
1479424244484157691,0.05,0.49,10.2
1479424244492615038,0.13,0.45,10.3
1479424244502638308,0.23,0.35,10.69
1479424244512644548,0.34,0.29,11.09
1479424244522738322,0.42,0.28,10.69
1479424244533014426,0.38,0.33,10.2
1479424244542693234,0.25,0.4,9.71
1479424244552697185,0.15,0.45,9.52
1479424244562958297,0.09,0.47,9.91
1479424244573258819,0.0,0.48,10.01
1479424244584281992,-0.09,0.52,10.3
1479424244592867141,-0.11,0.55,10.59
1479424244602821421,0.02,0.56,10.3
1479424244612845633,0.2,0.6,9.02
1479424244622889082,0.27,0.59,8.93
1479424244633182338,0.2,0.54,8.93
1479424244642908155,0.01,0.47,9.71
1479424244652964809,-0.09,0.41,9.61
1479424244663014411,-0.09,0.42,9.81
1479424244673237256,-0.04,0.47,9.22
1479424244684509039,-0.01,0.52,9.02
1479424244693244571,-0.02,0.56,9.22
1479424244703110440,0.0,0.55,9.42
1479424244713300916,0.0,0.52,9.52
1479424244723152923,-0.05,0.47,9.61
1479424244733617015,-0.03,0.42,9.71
1479424244743948612,0.05,0.36,9.81
1479424244753367732,0.09,0.36,9.81
1479424244764074208,0.08,0.41,8.93
1479424244773696456,-0.03,0.44,8.93
1479424244784729859,-0.18,0.47,9.52
1479424244793490933,-0.22,0.47,9.52
1479424244804118261,-0.14,0.5,9.81
1479424244813631970,-0.01,0.57,9.91
1479424244824093266,0.09,0.61,9.32
1479424244833801793,0.12,0.6,8.83
1479424244844119290,0.04,0.56,8.63
1479424244853798784,-0.08,0.51,8.93
1479424244864072794,-0.15,0.46,9.22
1479424244873822295,-0.08,0.45,9.81
1479424244884855771,0.03,0.52,9.52
1479424244893798734,0.1,0.61,9.32
1479424244904051245,0.09,0.66,9.42
1479424244913823058,-0.01,0.67,9.32
1479424244924079756,-0.16,0.65,9.61
1479424244933906902,-0.2,0.58,9.52
1479424244944069520,-0.13,0.5,9.42
1479424244953885984,-0.12,0.44,10.1
1479424244964034577,-0.17,0.43,10.5
1479424244974055613,-0.12,0.48,10.1
1479424244985031245,-0.02,0.54,9.71
1479424244993926388,0.0,0.59,9.42
1479424245004072131,-0.03,0.6,9.12
1479424245013943970,-0.07,0.58,9.61
1479424245024336381,-0.03,0.53,9.81
1479424245034029319,0.04,0.46,9.71
1479424245044068401,0.06,0.43,9.71
1479424245054009177,0.08,0.43,9.91
1479424245064104997,0.11,0.43,10.01
1479424245074025240,0.13,0.43,10.01
1479424245084819826,0.13,0.47,9.22
1479424245094071722,0.03,0.51,9.22
1479424245104134703,-0.13,0.52,9.42
1479424245114114452,-0.24,0.51,9.81
1479424245124300319,-0.26,0.49,9.91
1479424245134138622,-0.23,0.46,9.91
1479424245144334751,-0.16,0.47,9.61
1479424245154210078,-0.01,0.5,9.81
1479424245164334473,0.13,0.53,9.42
1479424245174222259,0.2,0.56,9.42
1479424245185052937,0.15,0.54,10.1
1479424245194272394,0.03,0.54,10.3
1479424245204333427,-0.06,0.59,10.1
1479424245214319478,-0.1,0.64,10.3
1479424245224626815,-0.08,0.69,9.81
1479424245234343607,-0.04,0.66,9.91
1479424245244643642,0.0,0.58,9.81
1479424245254380470,0.07,0.53,9.81
1479424245265043429,0.12,0.53,10.2
1479424245274968223,0.12,0.55,10.79
1479424245285627700,0.11,0.57,10.5
1479424245295005219,0.14,0.58,10.01
1479424245305077154,0.16,0.59,10.01
1479424245315004300,0.18,0.59,10.3
1479424245325034656,0.18,0.57,10.2
1479424245335376126,0.11,0.52,10.69
1479424245345301182,0.04,0.49,10.79
1479424245355341412,0.1,0.49,10.4
1479424245365037372,0.2,0.5,10.5
1479424245375263099,0.25,0.52,10.4
1479424245385732894,0.23,0.52,10.5
1479424245395394032,0.17,0.52,10.99
1479424245405385799,0.06,0.55,10.89
1479424245415215357,-0.01,0.57,10.59
1479424245425284863,-0.03,0.59,11.09
1479424245435345622,0.01,0.6,10.79
1479424245445615895,0.08,0.58,10.5
1479424245455179736,0.09,0.56,10.2
1479424245465376897,0.02,0.57,10.01
1479424245475130132,-0.06,0.61,9.91
1479424245486003912,-0.07,0.6,11.18
1479424245495372411,-0.06,0.61,10.99
1479424245505287623,-0.09,0.69,10.3
1479424245515116705,-0.16,0.74,9.71
1479424245525371850,-0.27,0.74,10.1
1479424245535100241,-0.39,0.69,10.3
1479424245545511753,-0.43,0.6,10.69
1479424245555391516,-0.35,0.53,10.5
1479424245565250064,-0.19,0.51,10.69
1479424245575381805,-0.02,0.54,10.79
1479424245585988117,0.13,0.58,10.3
1479424245595329257,0.19,0.62,10.4
1479424245605270165,0.05,0.65,10.3
1479424245615362610,-0.17,0.69,9.81
1479424245625618956,-0.3,0.7,10.4
1479424245635809659,-0.22,0.66,10.5
1479424245645505809,-0.04,0.6,9.71
1479424245655689251,0.09,0.58,8.83
1479424245665503814,0.16,0.6,9.02
1479424245675629594,0.12,0.61,9.91
1479424245686211009,0.03,0.59,10.1
1479424245695629701,0.04,0.59,10.01
1479424245705792158,0.11,0.64,9.61
1479424245715725746,0.1,0.71,9.42
1479424245725726108,0.02,0.75,9.32
1479424245735624202,-0.03,0.72,9.91
1479424245745742873,-0.05,0.66,10.01
1479424245755639271,-0.08,0.59,9.91
1479424245765946607,-0.05,0.57,9.52
1479424245776052294,0.07,0.59,9.81
1479424245786699632,0.18,0.64,9.71
1479424245795780271,0.23,0.7,9.12
1479424245805794050,0.24,0.76,9.22
1479424245816034646,0.19,0.79,9.22
1479424245825981131,0.05,0.77,9.42
1479424245836088618,-0.12,0.75,9.42
1479424245845982577,-0.22,0.73,9.61
1479424245855878192,-0.17,0.69,9.71
1479424245866195222,-0.04,0.65,9.42
1479424245875967257,0.05,0.62,9.52
1479424245886736859,0.05,0.62,10.01
1479424245895984455,-0.01,0.62,10.1
1479424245906448699,-0.06,0.63,9.52
1479424245916013205,-0.07,0.65,9.32
1479424245926261543,-0.1,0.67,8.63
1479424245936616778,-0.2,0.68,9.22
1479424245946212430,-0.33,0.65,10.4
1479424245956806668,-0.33,0.61,10.69
1479424245966198984,-0.25,0.61,10.5
1479424245976808046,-0.16,0.66,10.1
1479424245986982793,-0.11,0.7,9.61
1479424245996613237,-0.12,0.71,9.42
1479424246006242935,-0.14,0.71,8.63
1479424246016731301,-0.15,0.71,8.04
1479424246026364564,-0.16,0.69,9.32
1479424246036737616,-0.2,0.66,10.2
1479424246046458726,-0.27,0.67,10.01
1479424246056925791,-0.31,0.73,9.42
1479424246066449112,-0.24,0.76,8.93
1479424246076700523,-0.08,0.74,8.53
1479424246087177297,-0.09,0.65,9.02
1479424246096625540,-0.36,0.55,9.61
1479424246106625574,-0.54,0.48,9.81
1479424246116615041,-0.45,0.47,10.1
1479424246126469263,-0.31,0.55,10.4
1479424246136821672,-0.19,0.64,10.2
1479424246146611959,-0.09,0.7,9.32
1479424246156615650,-0.01,0.74,9.42
1479424246166981961,0.04,0.75,9.71
1479424246176656342,0.03,0.72,9.91
1479424246187493364,-0.09,0.67,10.1
1479424246196875565,-0.29,0.67,9.81
1479424246206782999,-0.28,0.72,9.42
1479424246217093085,-0.02,0.76,9.71
1479424246226854939,0.27,0.78,8.93
1479424246236781362,0.47,0.78,8.53
1479424246246833207,0.48,0.77,9.22
1479424246256971674,0.28,0.75,10.99
1479424246267159587,0.0,0.73,10.79
1479424246277332646,-0.22,0.73,10.3
1479424246287693197,-0.34,0.74,10.2
1479424246297053150,-0.42,0.71,10.5
1479424246307014141,-0.46,0.63,10.1
1479424246317255860,-0.38,0.53,10.4
1479424246327009994,-0.22,0.48,10.3
1479424246337231901,-0.05,0.48,10.79
1479424246347314318,0.09,0.51,10.69
1479424246357229479,0.23,0.57,10.3
1479424246367274970,0.28,0.64,9.71
1479424246377366189,0.17,0.67,10.01
1479424246388073612,0.0,0.69,10.4
1479424246397301545,-0.13,0.67,10.3
1479424246407551654,-0.28,0.64,10.01
1479424246417732649,-0.42,0.61,10.1
1479424246427616947,-0.43,0.59,10.59
1479424246437319498,-0.25,0.62,9.71
1479424246447324494,0.03,0.7,9.61
1479424246457495651,0.28,0.74,8.73
1479424246467431160,0.37,0.71,9.22
1479424246477737614,0.29,0.65,9.61
1479424246488160833,0.12,0.63,9.61
1479424246497459430,-0.02,0.66,9.71
1479424246507480021,-0.1,0.71,10.3
1479424246517539505,-0.08,0.74,10.01
1479424246527748122,-0.02,0.74,9.91
1479424246537618690,0.03,0.72,9.61
1479424246547629781,0.03,0.71,9.71
1479424246557737157,0.01,0.7,9.71
1479424246567627917,0.02,0.68,10.1
1479424246577821951,0.02,0.67,9.52
1479424246588431539,0.03,0.69,8.53
1479424246597656786,0.08,0.73,8.24
1479424246607686879,0.09,0.74,10.1
1479424246618007723,0.03,0.72,10.1
1479424246627738425,-0.04,0.72,10.2
1479424246637992518,-0.11,0.76,9.91
1479424246647782540,-0.17,0.8,9.52
1479424246657783312,-0.19,0.78,8.93
1479424246667782721,-0.13,0.72,9.12
1479424246677959553,-0.09,0.63,9.52
1479424246688618830,-0.06,0.56,10.1
1479424246697906077,-0.05,0.55,10.01
1479424246707927798,-0.05,0.61,9.91
1479424246717934169,-0.06,0.69,9.52
1479424246727989081,-0.06,0.76,8.83
1479424246738048786,-0.07,0.81,9.32
1479424246748249767,-0.1,0.79,10.1
1479424246758084089,-0.24,0.7,10.5
1479424246768383800,-0.42,0.65,10.4
1479424246778112862,-0.45,0.64,10.2
1479424246788863171,-0.35,0.67,9.91
1479424246798284598,-0.16,0.72,9.52
1479424246808179387,0.05,0.74,9.22
1479424246818406931,0.15,0.73,9.61
1479424246828243397,0.1,0.72,9.91
1479424246838507048,-0.01,0.71,10.2
1479424246848275832,-0.1,0.73,9.91
1479424246858410773,-0.15,0.77,10.1
1479424246868304162,-0.18,0.8,10.01
1479424246878343280,-0.15,0.77,9.81
1479424246889064263,-0.05,0.71,9.52
1479424246898515562,0.02,0.65,9.71
1479424246908688722,0.0,0.62,10.4
1479424246918460487,-0.07,0.62,10.4
1479424246928408328,-0.07,0.65,10.89
1479424246938463428,-0.04,0.7,10.1
1479424246948554382,0.0,0.72,9.22
1479424246958662803,0.07,0.72,9.02
1479424246968632513,0.16,0.69,9.61
1479424246978902719,0.13,0.65,10.01
1479424246989305711,0.0,0.61,10.2
1479424246998737005,-0.11,0.61,10.3
1479424247008630238,-0.07,0.64,10.4
1479424247018659063,0.04,0.69,10.3
1479424247028784340,0.18,0.72,9.61
1479424247038698174,0.25,0.73,9.42
1479424247048742223,0.17,0.71,9.81
1479424247058910113,-0.01,0.69,10.1
1479424247068815034,-0.12,0.68,9.91
1479424247078823824,-0.04,0.71,10.4
1479424247089742596,0.12,0.75,10.5
1479424247099010671,0.28,0.77,9.52
1479424247108869865,0.32,0.77,9.61
1479424247118909983,0.21,0.75,9.42
1479424247128936968,0.08,0.71,9.42
1479424247138915879,-0.02,0.67,9.81
1479424247148931734,-0.1,0.69,10.1
1479424247159336699,-0.07,0.73,10.1
1479424247169024051,0.01,0.77,9.52
1479424247179079711,0.06,0.78,10.01
1479424247189856158,0.03,0.75,9.81
1479424247199409018,0.0,0.71,9.52
1479424247209117642,0.01,0.67,10.01
1479424247219118402,-0.02,0.64,10.3
1479424247229163749,-0.14,0.62,10.3
1479424247239165091,-0.24,0.64,10.1
1479424247249200328,-0.27,0.67,9.81
1479424247259488805,-0.23,0.69,9.81
1479424247269629198,-0.18,0.7,10.1
1479424247279290799,-0.12,0.72,10.5
1479424247290028211,-0.07,0.72,9.91
1479424247299320988,-0.02,0.71,9.81
1479424247309370321,-0.01,0.69,10.2
1479424247319460745,0.0,0.69,10.1
1479424247329427873,0.01,0.7,10.01
1479424247339780812,0.02,0.72,9.61
1479424247349426400,0.02,0.75,9.32
1479424247359616222,0.04,0.77,9.42
1479424247369490190,0.01,0.76,10.1
1479424247379629460,-0.06,0.74,10.2
1479424247390562515,-0.15,0.74,10.2
1479424247399639114,-0.17,0.74,10.01
1479424247409675931,-0.15,0.72,10.1
1479424247419798690,-0.12,0.66,9.71
1479424247429644842,-0.09,0.62,9.52
1479424247439689922,-0.07,0.59,9.42
1479424247449694273,-0.03,0.58,9.81
1479424247459800005,0.0,0.57,9.91
1479424247469779590,0.01,0.6,10.01
1479424247480311471,-0.01,0.68,8.93
1479424247490525501,-0.05,0.76,8.73
1479424247499885939,-0.07,0.76,9.91
1479424247509857570,-0.1,0.69,10.3
1479424247519864240,-0.14,0.65,9.91
1479424247529972816,-0.19,0.68,9.61
1479424247540151369,-0.21,0.71,9.42
1479424247549982032,-0.16,0.72,9.22
1479424247560251410,-0.06,0.72,9.42
1479424247569960618,0.02,0.73,9.42
1479424247580195581,0.09,0.76,9.42
1479424247590782908,0.15,0.79,9.71
1479424247600362534,0.17,0.79,9.52
1479424247610056863,0.17,0.78,9.42
1479424247620334189,0.12,0.8,8.73
1479424247630106687,0.01,0.83,9.71
1479424247640300463,-0.07,0.8,9.91
1479424247650206982,-0.1,0.73,10.3
1479424247660360462,-0.09,0.7,10.01
1479424247670264999,-0.09,0.69,10.1
1479424247680335791,-0.06,0.7,10.2
1479424247690988444,-0.01,0.74,10.01
1479424247700640136,0.03,0.74,10.4
1479424247710276992,0.04,0.67,11.09
1479424247720608950,0.03,0.6,11.48
1479424247730342660,0.02,0.66,10.79
1479424247740446636,0.0,0.77,10.4
1479424247750442327,0.01,0.82,9.52
1479424247760440165,0.03,0.79,9.32
1479424247770926423,0.04,0.7,10.2
1479424247780489633,0.04,0.6,10.79
1479424247791249555,0.03,0.62,10.89
1479424247800618186,0.0,0.73,11.18
1479424247811179099,-0.11,0.8,11.18
1479424247820642026,-0.18,0.81,10.2
1479424247830968576,-0.17,0.76,9.52
1479424247840733378,-0.2,0.67,9.91
1479424247850963296,-0.27,0.59,10.59
1479424247860744454,-0.28,0.49,11.38
1479424247870932603,-0.18,0.41,11.97
1479424247880929590,0.03,0.46,10.69
1479424247891530140,0.3,0.59,9.12
1479424247900818264,0.38,0.71,9.32
1479424247911622091,0.12,0.75,9.91
1479424247921075643,-0.24,0.73,10.3
1479424247931051948,-0.38,0.72,10.89
1479424247940885304,-0.28,0.75,10.2
1479424247951029794,-0.05,0.77,9.52
1479424247961089304,0.14,0.77,8.83
1479424247971064274,0.27,0.74,8.63
1479424247981040678,0.44,0.68,9.02
1479424247991739766,0.55,0.67,9.32
1479424248001138468,0.43,0.69,10.1
1479424248011490861,0.15,0.68,10.79
1479424248021294717,-0.15,0.68,10.4
1479424248031407951,-0.34,0.72,9.81
1479424248041137738,-0.38,0.76,9.42
1479424248051111768,-0.37,0.75,8.83
1479424248061407771,-0.32,0.66,9.42
1479424248071228562,-0.18,0.58,10.01
1479424248081263521,0.04,0.58,10.01
1479424248091984238,0.29,0.66,10.01
1479424248101635345,0.43,0.74,9.91
1479424248111509298,0.37,0.8,9.61
1479424248121346923,0.19,0.82,9.02
1479424248131312574,0.0,0.81,8.63
1479424248141379925,-0.17,0.76,8.93
1479424248151395015,-0.36,0.67,10.4
1479424248161663388,-0.48,0.62,10.99
1479424248171625824,-0.46,0.65,10.79
1479424248181476247,-0.26,0.73,9.91
1479424248192209889,0.0,0.81,9.52
1479424248201492087,0.15,0.8,8.93
1479424248212053824,0.18,0.72,9.02
1479424248221749769,0.08,0.64,9.42
1479424248231617881,-0.07,0.61,10.2
1479424248241615440,-0.18,0.65,10.2
1479424248251869485,-0.17,0.71,10.1
1479424248261876722,-0.11,0.8,9.32
1479424248272034144,-0.05,0.86,9.32
1479424248281937511,0.01,0.84,9.32
1479424248292478671,0.03,0.75,10.1
1479424248301779970,-0.11,0.64,10.5
1479424248312002658,-0.28,0.55,10.89
1479424248321770240,-0.34,0.55,10.1
1479424248331850592,-0.4,0.64,10.3
1479424248341927709,-0.41,0.75,9.71
1479424248351839800,-0.36,0.79,9.22
1479424248361886093,-0.29,0.75,9.42
1479424248372048997,-0.15,0.7,10.01
1479424248381968317,0.03,0.66,10.1
1479424248392747502,0.18,0.68,9.71
1479424248402012972,0.17,0.75,9.32
1479424248412011972,0.01,0.77,9.52
1479424248422013633,-0.17,0.73,9.42
1479424248432050303,-0.19,0.69,9.71
1479424248442091228,-0.04,0.64,9.61
1479424248452158152,0.01,0.58,10.2
1479424248462185445,-0.15,0.57,10.2
1479424248472318847,-0.3,0.6,9.71
1479424248482257281,-0.23,0.64,10.4
1479424248492956136,-0.01,0.68,10.01
1479424248502300048,0.14,0.72,9.61
1479424248512275320,0.15,0.71,9.61
1479424248522301389,0.02,0.67,9.52
1479424248532362315,-0.15,0.64,9.52
1479424248542393941,-0.28,0.64,9.81
1479424248552346567,-0.31,0.67,9.91
1479424248562363950,-0.23,0.72,9.61
1479424248572459102,-0.1,0.77,9.12
1479424248582463022,0.01,0.81,9.22
1479424248593239333,0.07,0.81,9.61
1479424248602457834,0.0,0.78,9.42
1479424248612505967,-0.15,0.75,9.71
1479424248622469040,-0.29,0.71,10.01
1479424248632534893,-0.35,0.69,10.1
1479424248642626600,-0.32,0.69,9.61
1479424248652637253,-0.29,0.69,9.22
1479424248662654873,-0.33,0.67,9.61
1479424248672890871,-0.43,0.64,10.2
1479424248682647780,-0.47,0.64,9.91
1479424248693390751,-0.39,0.69,9.42
1479424248702729513,-0.28,0.75,9.22
1479424248712745461,-0.2,0.8,8.83
1479424248722774152,-0.17,0.79,8.93
1479424248732782906,-0.2,0.73,9.61
1479424248742844858,-0.26,0.69,9.71
1479424248753023397,-0.29,0.65,9.42
1479424248762840136,-0.23,0.65,9.42
1479424248772902592,-0.1,0.69,9.52
1479424248782912624,0.0,0.72,9.32
